File: Physics/PHYS 331 - Advanced Laboratory/PHYS 331 Experiments/PHYS 331 Raman Spectroscopy/PHYS 331 RS TiO2 Data/PHYS 331 RS TI02 Stokes (4 Sec) Run 1.csv
794.899,4955
794.951,5154
795.004,5238
795.056,5394
795.109,5504
795.161,5700
795.213,5971
795.266,6205
795.318,6547
795.371,6985
795.423,7407
795.476,7971
795.528,8553
795.581,9234
795.633,9950
795.686,10779
795.738,11500
795.79,12270
795.843,13111
795.895,13915
795.948,14703
796,15414
796.053,16178
796.105,16951
796.157,17656
796.21,18305
796.262,19103
796.315,19641
796.367,20329
796.419,20834
796.472,21348
796.524,21858
796.576,22292
796.629,22709
796.681,22768
796.734,23346
796.786,23695
796.838,23985
796.891,24178
796.943,24564
796.995,24621
797.048,25127
797.1,25305
797.152,25607
797.205,25779
797.257,25981
797.309,26166
797.362,26410
797.414,26873
797.466,26991
797.518,27198
797.571,27435
797.623,27750
797.675,27950
797.728,28102
797.78,28206
797.832,28645
797.884,28784
797.937,28836
797.989,29129
798.041,29330
798.093,29389
798.146,29601
798.198,29864
798.25,29991
798.302,30304
798.355,30333
798.407,30384
798.459,30652
798.511,30987
798.563,30979
798.616,31146
798.668,31366
798.72,31474
798.772,31598
798.824,31711
798.877,31866
798.929,31949
798.981,32057
799.033,32185
799.085,32221
799.137,32352
799.19,32309
799.242,32488
799.294,32457
799.346,32467
799.398,32537
799.45,32651
799.503,32550
799.555,32658
799.607,32466
799.659,32550
799.711,32574
799.763,32416
799.815,32466
799.867,32461
799.919,32440
799.972,32410
800.024,32302
800.076,32059
800.128,31921
800.18,31724
800.232,31472
800.284,31555
800.336,31276
800.388,30976
800.44,30999
800.492,30630
800.544,30476
800.596,30340
800.648,30275
800.7,29976
800.753,29796
800.805,29598
800.857,29538
800.909,29146
800.961,29110
801.013,28962
801.065,28926
801.117,28603
801.169,28485
801.221,28337
801.273,28244
801.325,28166
801.377,28044
801.429,27866
801.481,27812
801.533,27635
801.584,27680
801.636,27563
801.688,27362
801.74,27208
801.792,27130
801.844,27047
801.896,26998
801.948,26878
802,26771
802.052,26761
802.104,26557
802.156,26491
802.208,26260
802.26,26131
802.312,26029
802.363,25956
802.415,25846
802.467,25617
802.519,25493
802.571,25403
802.623,25489
802.675,25263
802.727,25092
802.779,24777
802.83,24770
802.882,24727
802.934,24610
802.986,24391
803.038,24201
803.09,24036
803.141,23916
803.193,23858
803.245,23761
803.297,23483
803.349,23455
803.401,23458
803.452,23163
803.504,23217
803.556,23178
803.608,22953
803.66,22959
803.711,23032
803.763,22876
803.815,22907
803.867,22881
803.919,22904
803.97,22835
804.022,22813
804.074,22864
804.126,22807
804.177,22882
804.229,23088
804.281,22973
804.333,22911
804.384,23091
804.436,23091
804.488,23240
804.539,23353
804.591,23230
804.643,23192
804.695,23433
804.746,23288
804.798,23496
804.85,23425
804.901,23578
804.953,23655
805.005,23545
805.056,23684
805.108,23673
805.16,23655
805.211,23725
805.263,23625
805.315,23751
805.366,23772
805.418,23841
805.47,23792
805.521,23722
805.573,23795
805.625,23871
805.676,23892
805.728,23895
805.779,23900
805.831,23879
805.883,23874
805.934,23987
805.986,23876
806.037,23985
806.089,23958
806.141,23972
806.192,24038
806.244,24073
806.295,24097
806.347,24112
806.399,24123
806.45,24193
806.502,24324
806.553,24347
806.605,24357
806.656,24360
806.708,24452
806.759,24471
806.811,24580
806.862,24648
806.914,24621
806.965,24749
807.017,24685
807.068,24865
807.12,24942
807.171,25018
807.223,24931
807.274,25000
807.326,25068
807.377,25039
807.429,25106
807.48,25151
807.532,25101
807.583,25209
807.635,25218
807.686,25258
807.738,25381
807.789,25285
807.841,25161
807.892,25377
807.943,25260
807.995,25329
808.046,25292
808.098,25410
808.149,25284
808.201,25298
808.252,25392
808.303,25398
808.355,25291
808.406,25419
808.457,25394
808.509,25422
808.56,25508
808.612,25559
808.663,25527
808.714,25501
808.766,25418
808.817,25451
808.868,25501
808.92,25620
808.971,25658
809.022,25583
809.074,25517
809.125,25624
809.176,25680
809.228,25776
809.279,25895
809.33,25927
809.382,25968
809.433,26054
809.484,26156
809.536,26364
809.587,26338
809.638,26390
809.689,26504
809.741,26611
809.792,26747
809.843,26906
809.895,27024
809.946,27169
809.997,27370
810.048,27399
810.1,27704
810.151,27747
810.202,27936
810.253,28314
810.305,28463
810.356,28562
810.407,28831
810.458,29110
810.509,29512
810.561,29822
810.612,30005
810.663,30397
810.714,30718
810.765,30984
810.817,31482
810.868,31827
810.919,32197
810.97,32660
811.021,33250
811.072,33644
811.124,34016
811.175,34636
811.226,35230
811.277,35646
811.328,36262
811.379,37003
811.43,37514
811.482,38245
811.533,38755
811.584,39380
811.635,40099
811.686,40888
811.737,41752
811.788,42578
811.839,43073
811.89,44073
811.941,44903
811.993,45631
812.044,46636
812.095,47465
812.146,48454
812.197,49180
812.248,50175
812.299,51138
812.35,52018
812.401,52804
812.452,53814
812.503,54816
812.554,55817
812.605,56802
812.656,57643
812.707,58529
812.758,59979
812.809,60557
812.86,61156
812.911,62196
812.962,62722
813.013,63629
813.064,64048
813.115,64329
813.166,65065
813.217,65335
813.268,65535
813.319,65535
813.37,65535
813.421,65535
813.472,65494
813.523,65128
813.574,64804
813.625,64292
813.676,63419
813.727,62477
813.778,61490
813.828,60485
813.879,59585
813.93,58207
813.981,57159
814.032,55500
814.083,54195
814.134,52916
814.185,51744
814.236,50372
814.286,49145
814.337,47566
814.388,46367
814.439,44902
814.49,43612
814.541,42434
814.592,41307
814.642,40227
814.693,39243
814.744,37978
814.795,37023
814.846,36091
814.897,35273
814.947,34352
814.998,33581
815.049,32798
815.1,31980
815.151,31268
815.201,30816
815.252,30214
815.303,29589
815.354,29184
815.405,28583
815.455,28089
815.506,27710
815.557,27295
815.608,26811
815.658,26298
815.709,25893
815.76,25744
815.811,25301
815.861,25011
815.912,24847
815.963,24449
816.014,24276
816.064,24005
816.115,23810
816.166,23522
816.216,23369
816.267,23231
816.318,23051
816.368,23020
816.419,22677
816.47,22711
816.521,22427
816.571,22357
816.622,22252
816.673,22157
816.723,22039
816.774,21986
816.824,21798
816.875,21820
816.926,21807
816.976,21574
817.027,21598
817.078,21518
817.128,21510
817.179,21515
817.229,21323
817.28,21418
817.331,21316
817.381,21260
817.432,21345
817.482,21265
817.533,21208
817.584,21335
817.634,21248
817.685,21231
817.735,21109
817.786,21339
817.836,21225
817.887,21199
817.938,21227
817.988,21228
818.039,21262
818.089,21218
818.14,21259
818.19,21207
818.241,21264
818.291,21285
818.342,21175
818.392,21265
818.443,21300
818.493,21348
818.544,21296
818.594,21236
818.645,21164
818.695,21273
818.746,21364
818.796,21332
818.847,21261
818.897,21307
818.947,21343
818.998,21257
819.048,21274
819.099,21384
819.149,21356
819.2,21336
819.25,21414
819.301,21537
819.351,21507
819.401,21514
819.452,21617
819.502,21539
819.553,21549
819.603,21482
819.653,21659
819.704,21616
819.754,21899
819.804,21861
819.855,21911
819.905,21989
819.956,21982
820.006,21991
820.056,22219
820.107,22165
820.157,22274
820.207,22458
820.258,22545
820.308,22527
820.358,22688
820.409,22764
820.459,22851
820.509,22859
820.56,23097
820.61,23107
820.66,23345
820.71,23480
820.761,23485
820.811,23675
820.861,23962
820.912,24061
820.962,24230
821.012,24532
821.062,24546
821.113,24874
821.163,25025
821.213,25067
821.263,25395
821.314,25552
821.364,25795
821.414,26025
821.464,26284
821.514,26489
821.565,26791
821.615,27164
821.665,27471
821.715,27794
821.765,27962
821.816,28420
821.866,28662
821.916,29022
821.966,29431
822.016,29730
822.066,30092
822.117,30560
822.167,31072
822.217,31442
822.267,31878
822.317,32239
822.367,32506
822.417,33187
822.468,33689
822.518,34135
822.568,34648
822.618,35007
822.668,35753
822.718,36272
822.768,36752
822.818,37341
822.868,37878
822.918,38589
822.969,39212
823.019,39862
823.069,40427
823.119,41307
823.169,41938
823.219,42554
823.269,43348
823.319,43870
823.369,44724
823.419,45372
823.469,45999
823.519,46849
823.569,47608
823.619,48306
823.669,48859
823.719,49583
823.769,50166
823.819,50954
823.869,51419
823.919,51757
823.969,52250
824.019,52786
824.069,53098
824.119,53147
824.169,53116
824.219,53257
824.269,53279
824.319,53127
824.369,53129
824.419,52746
824.469,52335
824.519,52061
824.569,51416
824.618,50863
824.668,50295
824.718,49757
824.768,48840
824.818,48191
824.868,47419
824.918,46572
824.968,45606
825.018,44845
825.068,43836
825.117,42951
825.167,42431
825.217,41397
825.267,40328
825.317,39721
825.367,38944
825.417,37974
825.466,37263
825.516,36818
825.566,35719
825.616,35016
825.666,34126
825.715,33587
825.765,32952
825.815,32268
825.865,31564
825.915,31189
825.964,30546
826.014,29965
826.064,29511
826.114,29094
826.164,28619
826.213,28124
826.263,27835
826.313,27457
826.363,26907
826.412,26696
826.462,26319
826.512,25961
826.562,25602
826.611,25252
826.661,25033
826.711,24886
826.76,24570
826.81,24326
826.86,23995
826.91,23906
826.959,23519
827.009,23328
827.059,23058
827.108,22885
827.158,22822
827.208,22562
827.257,22397
827.307,22233
827.357,22053
827.406,21930
827.456,21705
827.506,21616
827.555,21507
827.605,21435
827.655,21323
827.704,21164
827.754,21112
827.803,20948
827.853,20755
827.903,20657
827.952,20469
828.002,20520
828.051,20390
828.101,20423
828.151,20268
828.2,20239
828.25,20104
828.299,19863
828.349,19857
828.398,19737
828.448,19571
828.497,19537
828.547,19535
828.596,19488
828.646,19471
828.696,19251
828.745,19187
828.795,19120
828.844,19026
828.894,18955
828.943,18918
828.993,18791
829.042,18898
829.092,18737
829.141,18633
829.191,18625
829.24,18595
829.289,18480
829.339,18423
829.388,18426
829.438,18406
829.487,18235
829.537,18236
829.586,18192
829.636,18124
829.685,18118
829.734,18037
829.784,17930
829.833,17871
829.883,17887
829.932,17837
829.981,17834
830.031,17689
830.08,17610
830.13,17593
830.179,17547
830.228,17555
830.278,17414
830.327,17476
830.377,17441
830.426,17418
830.475,17372
830.525,17195
830.574,17153
830.623,17141
830.673,17059
830.722,17024
830.771,16977
830.821,16916
830.87,16838
830.919,16757
830.968,16680
831.018,16792
831.067,16655
831.116,16646
831.166,16614
831.215,16489
831.264,16570
831.313,16408
831.363,16372
831.412,16303
831.461,16358
831.51,16301
831.56,16174
831.609,16079
831.658,16135
831.707,16062
831.757,15948
831.806,15878
831.855,15826
831.904,15758
831.953,15761
832.003,15678
832.052,15568
832.101,15557
832.15,15525
832.199,15473
832.249,15512
832.298,15389
832.347,15346
832.396,15262
832.445,15185
832.494,15137
832.543,15046
832.593,15028
832.642,14995
832.691,14958
832.74,14837
832.789,14821
832.838,14846
832.887,14692
832.936,14731
832.986,14699
833.035,14589
833.084,14549
833.133,14553
833.182,14516
833.231,14452
833.28,14343
833.329,14336
833.378,14338
833.427,14262
833.476,14176
833.525,14209
833.574,14247
833.623,14250
833.672,14162
833.721,14090
833.77,14073
833.819,14057
833.868,14007
833.917,13947
833.966,13965
834.015,13936
834.064,13831
834.113,13849
834.162,13866
834.211,13767
834.26,13749
834.309,13653
834.358,13757
834.407,13722
834.456,13692
834.505,13671
834.554,13670
834.603,13628
834.652,13582
834.701,13585
834.75,13564
834.799,13610
834.848,13521
834.897,13590
834.945,13542
834.994,13525
835.043,13504
835.092,13428
835.141,13447
835.19,13344
835.239,13406
835.288,13419
835.336,13436
835.385,13362
835.434,13345
835.483,13308
835.532,13337
835.581,13320
835.629,13222
835.678,13301
835.727,13258
835.776,13328
835.825,13314
835.874,13309
835.922,13268
835.971,13242
836.02,13147
836.069,13152
836.117,13173
836.166,13168
836.215,13175
836.264,13096
836.313,13113
836.361,13206
836.41,13151
836.459,13045
836.508,13109
836.556,13127
836.605,13084
836.654,13052
836.702,13057
836.751,13046
836.8,13038
836.849,13053
836.897,13025
836.946,12919
836.995,12874
837.043,12900
837.092,12875
837.141,12893
837.189,12826
837.238,12819
837.287,12966
837.335,12964
837.384,12911
837.433,12845
837.481,12774
837.53,12801
837.579,12822
837.627,12749
837.676,12793
837.724,12836
837.773,12779
837.822,12676
837.87,12762
837.919,12668
837.967,12727
838.016,12649
838.065,12731
838.113,12715
838.162,12614
838.21,12618
838.259,12642
838.307,12648
838.356,12739
838.404,12668
838.453,12710
838.502,12606
838.55,12642
838.599,12588
838.647,12593
838.696,12551
838.744,12580
838.793,12603
838.841,12608
838.89,12600
838.938,12581
838.987,12583
839.035,12516
839.084,12595
839.132,12528
839.18,12539
839.229,12523
839.277,12529
839.326,12520
839.374,12475
839.423,12492
839.471,12539
839.52,12538
839.568,12498
839.616,12428
839.665,12477
839.713,12420
839.762,12463
839.81,12435
839.858,12372
839.907,12522
839.955,12361
840.004,12412
840.052,12420
840.1,12420
840.149,12355
840.197,12387
840.245,12356
840.294,12273
840.342,12380
840.39,12348
840.439,12382
840.487,12269
840.535,12260
840.584,12331
840.632,12241
840.68,12336
840.729,12281
840.777,12192
840.825,12105
840.873,12170
840.922,12141
840.97,12219
841.018,12231
841.067,12191
841.115,12137
841.163,12108
841.211,12117
841.26,12226
841.308,12204
841.356,12156
841.404,12087
841.452,12107
841.501,12114
841.549,12098
841.597,12093
841.645,12008
841.694,12026
841.742,12057
841.79,12011
841.838,11972
841.886,12051
841.934,11990
841.983,11984
842.031,12043
842.079,11962
842.127,11885
842.175,11948
842.223,11928
842.271,11888
842.32,11877
842.368,12007
842.416,11966
842.464,11935
842.512,11818
842.56,11876
842.608,11954
842.656,11900
842.704,11828
842.753,11842
842.801,11867
842.849,11861
842.897,11896
842.945,11842
842.993,11878
843.041,11820
843.089,11848
843.137,11888
843.185,11888
843.233,11816
843.281,11844
843.329,11743
843.377,11845
843.425,11807
843.473,11780
843.521,11813
843.569,11746
843.617,11836
843.665,11733
843.713,11888
843.761,11762
843.809,11745
843.857,11788
843.905,11820
843.953,11766
844.001,11702
844.049,11838
844.097,11849
844.145,11745
844.193,11798
844.241,11738
844.289,11792
844.336,11777
844.384,11731
844.432,11821
844.48,11757
844.528,11762
844.576,11733
844.624,11765
844.672,11763
844.72,11725
844.767,11796
844.815,11700
844.863,11714
844.911,11761
844.959,11695
845.007,11750
845.055,11784
845.102,11739
845.15,11704
845.198,11715
845.246,11631
845.294,11714
845.341,11717
845.389,11644
845.437,11640
845.485,11649
845.533,11702
845.58,11643
845.628,11613
845.676,11598
845.724,11628
845.771,11660
845.819,11660
845.867,11672
845.915,11694
845.962,11627
846.01,11616
846.058,11645
846.106,11637
846.153,11554
846.201,11551
846.249,11627