File: Physics/PHYS 331 - Advanced Laboratory/PHYS 331 Experiments/PHYS 331 Raman Spectroscopy/PHYS 331 RS TiO2 Data/PHYS 331 RS TI02 Stokes (2 Sec) Run 2.csv
794.899,2748
794.951,2880
795.004,2922
795.056,3011
795.109,3045
795.161,3146
795.213,3323
795.266,3449
795.318,3582
795.371,3767
795.423,4065
795.476,4332
795.528,4609
795.581,5019
795.633,5315
795.686,5768
795.738,6057
795.79,6418
795.843,6879
795.895,7307
795.948,7710
796,8090
796.053,8500
796.105,8928
796.157,9230
796.21,9580
796.262,9917
796.315,10204
796.367,10533
796.419,10831
796.472,11042
796.524,11313
796.576,11546
796.629,11724
796.681,11878
796.734,12069
796.786,12173
796.838,12470
796.891,12583
796.943,12660
796.995,12756
797.048,12903
797.1,12975
797.152,13164
797.205,13264
797.257,13479
797.309,13538
797.362,13569
797.414,13783
797.466,13906
797.518,14047
797.571,14109
797.623,14283
797.675,14352
797.728,14508
797.78,14525
797.832,14628
797.884,14747
797.937,14828
797.989,14940
798.041,14985
798.093,15108
798.146,15187
798.198,15335
798.25,15496
798.302,15526
798.355,15654
798.407,15758
798.459,15738
798.511,15921
798.563,15890
798.616,16015
798.668,16122
798.72,16085
798.772,16142
798.824,16184
798.877,16330
798.929,16365
798.981,16341
799.033,16508
799.085,16456
799.137,16570
799.19,16561
799.242,16605
799.294,16582
799.346,16654
799.398,16595
799.45,16569
799.503,16671
799.555,16665
799.607,16616
799.659,16678
799.711,16627
799.763,16479
799.815,16565
799.867,16623
799.919,16482
799.972,16527
800.024,16372
800.076,16292
800.128,16306
800.18,16288
800.232,16075
800.284,16042
800.336,16064
800.388,16018
800.44,15906
800.492,15791
800.544,15727
800.596,15557
800.648,15484
800.7,15483
800.753,15246
800.805,15159
800.857,15125
800.909,15002
800.961,15030
801.013,14932
801.065,14836
801.117,14685
801.169,14670
801.221,14614
801.273,14481
801.325,14378
801.377,14394
801.429,14367
801.481,14315
801.533,14268
801.584,14318
801.636,14157
801.688,14062
801.74,14152
801.792,13898
801.844,13899
801.896,13905
801.948,13748
802,13752
802.052,13683
802.104,13691
802.156,13573
802.208,13515
802.26,13501
802.312,13476
802.363,13329
802.415,13339
802.467,13392
802.519,13185
802.571,13223
802.623,13127
802.675,12989
802.727,12855
802.779,12788
802.83,12797
802.882,12774
802.934,12568
802.986,12539
803.038,12544
803.09,12410
803.141,12361
803.193,12305
803.245,12290
803.297,12220
803.349,12121
803.401,12069
803.452,12073
803.504,12041
803.556,11951
803.608,11951
803.66,11805
803.711,11898
803.763,11891
803.815,11885
803.867,11837
803.919,11855
803.97,11811
804.022,11716
804.074,11867
804.126,11843
804.177,11787
804.229,11883
804.281,11843
804.333,11905
804.384,11905
804.436,11908
804.488,11905
804.539,11980
804.591,12022
804.643,12078
804.695,12090
804.746,12060
804.798,12153
804.85,12130
804.901,12216
804.953,12201
805.005,12242
805.056,12276
805.108,12255
805.16,12218
805.211,12315
805.263,12333
805.315,12289
805.366,12300
805.418,12314
805.47,12296
805.521,12251
805.573,12299
805.625,12298
805.676,12368
805.728,12300
805.779,12280
805.831,12276
805.883,12321
805.934,12389
805.986,12401
806.037,12439
806.089,12324
806.141,12457
806.192,12427
806.244,12437
806.295,12383
806.347,12422
806.399,12444
806.45,12508
806.502,12534
806.553,12469
806.605,12522
806.656,12609
806.708,12590
806.759,12621
806.811,12642
806.862,12602
806.914,12798
806.965,12696
807.017,12834
807.068,12761
807.12,12812
807.171,12866
807.223,12924
807.274,12892
807.326,12934
807.377,13009
807.429,12853
807.48,12910
807.532,13047
807.583,12934
807.635,13077
807.686,13010
807.738,13039
807.789,13045
807.841,13027
807.892,13080
807.943,13126
807.995,13105
808.046,13033
808.098,13116
808.149,12989
808.201,13032
808.252,13038
808.303,13087
808.355,13147
808.406,13101
808.457,13129
808.509,13104
808.56,13163
808.612,13150
808.663,13200
808.714,13247
808.766,13142
808.817,13185
808.868,13190
808.92,13212
808.971,13159
809.022,13220
809.074,13213
809.125,13288
809.176,13274
809.228,13332
809.279,13391
809.33,13399
809.382,13448
809.433,13502
809.484,13463
809.536,13576
809.587,13571
809.638,13569
809.689,13679
809.741,13694
809.792,13781
809.843,13813
809.895,13940
809.946,13972
809.997,14149
810.048,14102
810.1,14164
810.151,14360
810.202,14472
810.253,14460
810.305,14646
810.356,14831
810.407,14894
810.458,15027
810.509,15124
810.561,15249
810.612,15404
810.663,15604
810.714,15682
810.765,15930
810.817,16067
810.868,16271
810.919,16534
810.97,16760
811.021,17029
811.072,17160
811.124,17455
811.175,17659
811.226,17875
811.277,18259
811.328,18562
811.379,18877
811.43,19174
811.482,19411
811.533,19818
811.584,20244
811.635,20525
811.686,20924
811.737,21294
811.788,21638
811.839,21921
811.89,22378
811.941,22859
811.993,23295
812.044,23809
812.095,24139
812.146,24565
812.197,24951
812.248,25592
812.299,25932
812.35,26330
812.401,26889
812.452,27299
812.503,27738
812.554,28277
812.605,28788
812.656,29339
812.707,29628
812.758,30275
812.809,30682
812.86,30960
812.911,31530
812.962,31813
813.013,32028
813.064,32453
813.115,32660
813.166,32786
813.217,32997
813.268,33212
813.319,33354
813.37,33464
813.421,33380
813.472,33156
813.523,32986
813.574,32770
813.625,32405
813.676,32002
813.727,31528
813.778,31078
813.828,30657
813.879,30192
813.93,29398
813.981,28971
814.032,28198
814.083,27589
814.134,26910
814.185,26092
814.236,25564
814.286,24776
814.337,24217
814.388,23429
814.439,22773
814.49,22218
814.541,21517
814.592,21075
814.642,20355
814.693,19916
814.744,19358
814.795,18878
814.846,18407
814.897,17942
814.947,17536
814.998,17201
815.049,16794
815.1,16404
815.151,16043
815.201,15734
815.252,15499
815.303,15195
815.354,14932
815.405,14625
815.455,14430
815.506,14277
815.557,13976
815.608,13785
815.658,13577
815.709,13411
815.76,13279
815.811,13139
815.861,13072
815.912,12756
815.963,12674
816.014,12572
816.064,12421
816.115,12311
816.166,12177
816.216,12116
816.267,11894
816.318,11885
816.368,11854
816.419,11724
816.47,11779
816.521,11728
816.571,11551
816.622,11438
816.673,11443
816.723,11444
816.774,11377
816.824,11354
816.875,11277
816.926,11225
816.976,11205
817.027,11269
817.078,11162
817.128,11126
817.179,11094
817.229,11072
817.28,11168
817.331,11186
817.381,11112
817.432,11131
817.482,11081
817.533,11066
817.584,11021
817.634,11030
817.685,11122
817.735,10966
817.786,10976
817.836,11041
817.887,11081
817.938,11090
817.988,11023
818.039,11021
818.089,10953
818.14,11068
818.19,11055
818.241,11074
818.291,11113
818.342,10972
818.392,11071
818.443,10994
818.493,10987
818.544,11014
818.594,11004
818.645,11080
818.695,11062
818.746,11081
818.796,11030
818.847,11074
818.897,11040
818.947,11083
818.998,11074
819.048,11107
819.099,11140
819.149,11148
819.2,11060
819.25,11146
819.301,11137
819.351,11183
819.401,11228
819.452,11238
819.502,11156
819.553,11224
819.603,11210
819.653,11343
819.704,11296
819.754,11339
819.804,11321
819.855,11306
819.905,11351
819.956,11488
820.006,11490
820.056,11411
820.107,11512
820.157,11544
820.207,11625
820.258,11567
820.308,11647
820.358,11738
820.409,11790
820.459,11839
820.509,11902
820.56,11852
820.61,12091
820.66,12062
820.71,12085
820.761,12169
820.811,12235
820.861,12295
820.912,12412
820.962,12494
821.012,12604
821.062,12712
821.113,12730
821.163,12841
821.213,13023
821.263,13080
821.314,13212
821.364,13413
821.414,13416
821.464,13628
821.514,13644
821.565,13869
821.615,13954
821.665,14124
821.715,14347
821.765,14431
821.816,14655
821.866,14748
821.916,14946
821.966,15158
822.016,15216
822.066,15574
822.117,15671
822.167,15948
822.217,16141
822.267,16343
822.317,16561
822.367,16843
822.417,16978
822.468,17205
822.518,17517
822.568,17740
822.618,18000
822.668,18359
822.718,18624
822.768,18789
822.818,19070
822.868,19429
822.918,19734
822.969,20078
823.019,20458
823.069,20692
823.119,21052
823.169,21423
823.219,21683
823.269,22219
823.319,22507
823.369,22789
823.419,23121
823.469,23522
823.519,23889
823.569,24104
823.619,24502
823.669,24881
823.719,25029
823.769,25566
823.819,25831
823.869,26175
823.919,26307
823.969,26563
824.019,26711
824.069,26905
824.119,26920
824.169,26900
824.219,26854
824.269,27126
824.319,26773
824.369,27001
824.419,26781
824.469,26623
824.519,26455
824.569,25974
824.618,25769
824.668,25475
824.718,25247
824.768,24855
824.818,24453
824.868,24008
824.918,23608
824.968,23147
825.018,22735
825.068,22300
825.117,21789
825.167,21448
825.217,21004
825.267,20516
825.317,20039
825.367,19721
825.417,19360
825.466,19000
825.516,18570
825.566,18214
825.616,17884
825.666,17479
825.715,17088
825.765,16830
825.815,16514
825.865,16190
825.915,15898
825.964,15859
826.014,15420
826.064,15140
826.114,14900
826.164,14693
826.213,14411
826.263,14282
826.313,14048
826.363,13957
826.412,13693
826.462,13501
826.512,13349
826.562,13148
826.611,13025
826.661,12812
826.711,12854
826.76,12635
826.81,12555
826.86,12405
826.91,12264
826.959,12201
827.009,12030
827.059,12021
827.108,11883
827.158,11822
827.208,11672
827.257,11626
827.307,11554
827.357,11385
827.406,11304
827.456,11355
827.506,11266
827.555,11196
827.605,11119
827.655,11034
827.704,10947
827.754,10952
827.803,10899
827.853,10908
827.903,10784
827.952,10674
828.002,10634
828.051,10612
828.101,10636
828.151,10561
828.2,10479
828.25,10426
828.299,10275
828.349,10391
828.398,10234
828.448,10357
828.497,10267
828.547,10108
828.596,10138
828.646,10124
828.696,10041
828.745,9939
828.795,9981
828.844,9954
828.894,9941
828.943,9864
828.993,9883
829.042,9852
829.092,9805
829.141,9704
829.191,9672
829.24,9660
829.289,9645
829.339,9726
829.388,9586
829.438,9601
829.487,9547
829.537,9470
829.586,9460
829.636,9374
829.685,9482
829.734,9425
829.784,9429
829.833,9396
829.883,9315
829.932,9354
829.981,9316
830.031,9281
830.08,9341
830.13,9270
830.179,9257
830.228,9223
830.278,9108
830.327,9068
830.377,9046
830.426,9037
830.475,9020
830.525,9024
830.574,8970
830.623,8946
830.673,8957
830.722,8936
830.771,8900
830.821,8831
830.87,8828
830.919,8760
830.968,8796
831.018,8760
831.067,8710
831.116,8740
831.166,8667
831.215,8669
831.264,8649
831.313,8653
831.363,8540
831.412,8586
831.461,8534
831.51,8541
831.56,8477
831.609,8466
831.658,8374
831.707,8390
831.757,8427
831.806,8354
831.855,8302
831.904,8289
831.953,8289
832.003,8260
832.052,8244
832.101,8171
832.15,8162
832.199,8117
832.249,8132
832.298,8053
832.347,8074
832.396,8047
832.445,7943
832.494,8008
832.543,7974
832.593,7894
832.642,7840
832.691,7859
832.74,7865
832.789,7895
832.838,7819
832.887,7819
832.936,7761
832.986,7721
833.035,7700
833.084,7635
833.133,7677
833.182,7614
833.231,7643
833.28,7552
833.329,7642
833.378,7562
833.427,7560
833.476,7527
833.525,7490
833.574,7456
833.623,7479
833.672,7490
833.721,7429
833.77,7459
833.819,7445
833.868,7455
833.917,7421
833.966,7333
834.015,7254
834.064,7321
834.113,7306
834.162,7294
834.211,7300
834.26,7269
834.309,7238
834.358,7227
834.407,7264
834.456,7245
834.505,7280
834.554,7289
834.603,7216
834.652,7186
834.701,7145
834.75,7184
834.799,7175
834.848,7200
834.897,7105
834.945,7105
834.994,7147
835.043,7174
835.092,7152
835.141,7105
835.19,7152
835.239,7090
835.288,7083
835.336,7096
835.385,7118
835.434,7034
835.483,7056
835.532,7026
835.581,7003
835.629,6992
835.678,7042
835.727,7016
835.776,7034
835.825,6938
835.874,7012
835.922,6989
835.971,7004
836.02,7066
836.069,7043
836.117,6961
836.166,6943
836.215,6941
836.264,6905
836.313,6920
836.361,6922
836.41,6944
836.459,6905
836.508,6885
836.556,6927
836.605,6964
836.654,6918
836.702,6874
836.751,6936
836.8,6912
836.849,6856
836.897,6823
836.946,6849
836.995,6966
837.043,6912
837.092,6788
837.141,6820
837.189,6843
837.238,6765
837.287,6826
837.335,6831
837.384,6880
837.433,6732
837.481,6773
837.53,6768
837.579,6804
837.627,6846
837.676,6789
837.724,6742
837.773,6761
837.822,6748
837.87,6730
837.919,6727
837.967,6716
838.016,6711
838.065,6732
838.113,6727
838.162,6689
838.21,6744
838.259,6725
838.307,6697
838.356,6688
838.404,6672
838.453,6718
838.502,6654
838.55,6671
838.599,6765
838.647,6703
838.696,6678
838.744,6669
838.793,6731
838.841,6692
838.89,6671
838.938,6642
838.987,6603
839.035,6697
839.084,6648
839.132,6667
839.18,6662
839.229,6684
839.277,6686
839.326,6617
839.374,6627
839.423,6623
839.471,6606
839.52,6661
839.568,6583
839.616,6621
839.665,6676
839.713,6632
839.762,6596
839.81,6648
839.858,6639
839.907,6630
839.955,6613
840.004,6613
840.052,6635
840.1,6561
840.149,6554
840.197,6525
840.245,6568
840.294,6530
840.342,6559
840.39,6517
840.439,6576
840.487,6541
840.535,6573
840.584,6550
840.632,6499
840.68,6502
840.729,6550
840.777,6502
840.825,6454
840.873,6488
840.922,6513
840.97,6465
841.018,6470
841.067,6522
841.115,6437
841.163,6503
841.211,6521
841.26,6529
841.308,6440
841.356,6479
841.404,6407
841.452,6429
841.501,6438
841.549,6423
841.597,6405
841.645,6419
841.694,6446
841.742,6404
841.79,6406
841.838,6347
841.886,6396
841.934,6329
841.983,6415
842.031,6377
842.079,6362
842.127,6317
842.175,6325
842.223,6335
842.271,6377
842.32,6360
842.368,6302
842.416,6353
842.464,6309
842.512,6324
842.56,6349
842.608,6309
842.656,6313
842.704,6293
842.753,6300
842.801,6340
842.849,6297
842.897,6318
842.945,6282
842.993,6288
843.041,6293
843.089,6282
843.137,6290
843.185,6275
843.233,6256
843.281,6291
843.329,6259
843.377,6290
843.425,6298
843.473,6228
843.521,6246
843.569,6275
843.617,6300
843.665,6288
843.713,6309
843.761,6289
843.809,6316
843.857,6298
843.905,6256
843.953,6260
844.001,6250
844.049,6258
844.097,6313
844.145,6255
844.193,6221
844.241,6295
844.289,6242
844.336,6292
844.384,6233
844.432,6358
844.48,6316
844.528,6283
844.576,6295
844.624,6252
844.672,6275
844.72,6284
844.767,6213
844.815,6246
844.863,6234
844.911,6251
844.959,6206
845.007,6227
845.055,6224
845.102,6196
845.15,6261
845.198,6209
845.246,6265
845.294,6215
845.341,6255
845.389,6307
845.437,6235
845.485,6254
845.533,6228
845.58,6181
845.628,6192
845.676,6145
845.724,6212
845.771,6207
845.819,6193
845.867,6198
845.915,6204
845.962,6178
846.01,6165
846.058,6271
846.106,6125
846.153,6182
846.201,6147
846.249,6174