File: Physics/PHYS 331 - Advanced Laboratory/PHYS 331 Experiments/PHYS 331 Raman Spectroscopy/PHYS 331 RS TiO2 Data/PHYS 331 RS TI02 Antistokes (4 Sec) Run 2.csv
724.376,4875
724.431,4958
724.485,4971
724.54,5039
724.595,4981
724.65,5053
724.705,5010
724.76,5001
724.815,5016
724.87,5020
724.924,5110
724.979,5094
725.034,5077
725.089,5075
725.144,5001
725.199,5133
725.253,5097
725.308,5112
725.363,5074
725.418,5057
725.473,5161
725.527,5103
725.582,5077
725.637,5102
725.692,5111
725.747,5127
725.801,5184
725.856,5144
725.911,5119
725.966,5147
726.02,5183
726.075,5173
726.13,5203
726.185,5154
726.24,5185
726.294,5153
726.349,5147
726.404,5135
726.458,5166
726.513,5212
726.568,5211
726.623,5181
726.677,5186
726.732,5154
726.787,5210
726.842,5257
726.896,5206
726.951,5241
727.006,5206
727.06,5154
727.115,5211
727.17,5236
727.224,5243
727.279,5270
727.334,5202
727.388,5242
727.443,5196
727.498,5227
727.552,5265
727.607,5198
727.662,5182
727.716,5224
727.771,5242
727.826,5241
727.88,5262
727.935,5278
727.99,5272
728.044,5269
728.099,5237
728.153,5252
728.208,5262
728.263,5199
728.317,5350
728.372,5216
728.426,5256
728.481,5236
728.536,5250
728.59,5189
728.645,5270
728.699,5242
728.754,5252
728.809,5282
728.863,5245
728.918,5230
728.972,5311
729.027,5253
729.081,5280
729.136,5238
729.19,5294
729.245,5242
729.299,5290
729.354,5300
729.408,5340
729.463,5373
729.518,5276
729.572,5344
729.627,5345
729.681,5319
729.736,5313
729.79,5342
729.845,5393
729.899,5282
729.954,5358
730.008,5403
730.062,5410
730.117,5363
730.171,5295
730.226,5389
730.28,5422
730.335,5410
730.389,5423
730.444,5403
730.498,5368
730.553,5395
730.607,5366
730.661,5414
730.716,5402
730.77,5483
730.825,5504
730.879,5438
730.934,5443
730.988,5523
731.042,5480
731.097,5438
731.151,5499
731.206,5503
731.26,5496
731.314,5528
731.369,5465
731.423,5514
731.477,5574
731.532,5538
731.586,5532
731.641,5560
731.695,5591
731.749,5565
731.804,5541
731.858,5540
731.912,5585
731.967,5558
732.021,5568
732.075,5584
732.13,5542
732.184,5551
732.238,5547
732.293,5671
732.347,5597
732.401,5553
732.455,5618
732.51,5623
732.564,5586
732.618,5624
732.673,5519
732.727,5599
732.781,5584
732.835,5585
732.89,5632
732.944,5598
732.998,5586
733.052,5606
733.107,5717
733.161,5690
733.215,5715
733.269,5689
733.324,5727
733.378,5706
733.432,5711
733.486,5790
733.541,5682
733.595,5697
733.649,5675
733.703,5669
733.757,5787
733.812,5724
733.866,5832
733.92,5759
733.974,5779
734.028,5740
734.083,5780
734.137,5833
734.191,5869
734.245,5863
734.299,5828
734.353,5885
734.408,5936
734.462,5857
734.516,5903
734.57,5845
734.624,5971
734.678,5873
734.732,5868
734.786,5921
734.841,5872
734.895,5970
734.949,5851
735.003,5915
735.057,5929
735.111,5977
735.165,6026
735.219,5968
735.273,6046
735.327,6004
735.382,6032
735.436,6001
735.49,6088
735.544,6111
735.598,6144
735.652,6021
735.706,6052
735.76,6099
735.814,6075
735.868,6143
735.922,6071
735.976,6061
736.03,6083
736.084,6114
736.138,6078
736.192,6139
736.246,6154
736.3,6154
736.354,6141
736.408,6120
736.462,6047
736.516,6192
736.57,6192
736.624,6171
736.678,6266
736.732,6272
736.786,6233
736.84,6247
736.894,6267
736.948,6346
737.002,6283
737.056,6317
737.11,6360
737.164,6323
737.218,6380
737.272,6416
737.326,6377
737.38,6363
737.433,6447
737.487,6378
737.541,6385
737.595,6423
737.649,6490
737.703,6453
737.757,6422
737.811,6411
737.865,6482
737.919,6553
737.972,6507
738.026,6510
738.08,6546
738.134,6585
738.188,6479
738.242,6533
738.296,6545
738.349,6575
738.403,6570
738.457,6533
738.511,6637
738.565,6555
738.619,6536
738.672,6618
738.726,6619
738.78,6617
738.834,6575
738.888,6647
738.941,6683
738.995,6642
739.049,6678
739.103,6736
739.157,6749
739.21,6698
739.264,6741
739.318,6715
739.372,6701
739.426,6694
739.479,6805
739.533,6806
739.587,6871
739.641,6861
739.694,6844
739.748,6904
739.802,7006
739.855,6934
739.909,6876
739.963,6970
740.017,7022
740.07,7028
740.124,6994
740.178,7066
740.231,7070
740.285,7108
740.339,7168
740.393,7115
740.446,7117
740.5,7086
740.554,7164
740.607,7149
740.661,7159
740.715,7259
740.768,7195
740.822,7255
740.876,7347
740.929,7212
740.983,7263
741.037,7289
741.09,7468
741.144,7378
741.197,7382
741.251,7391
741.305,7372
741.358,7518
741.412,7406
741.465,7384
741.519,7522
741.573,7609
741.626,7633
741.68,7569
741.733,7682
741.787,7763
741.841,7710
741.894,7730
741.948,7723
742.001,7771
742.055,7763
742.108,7810
742.162,7812
742.215,7890
742.269,7872
742.323,7925
742.376,7906
742.43,7913
742.483,8008
742.537,8026
742.59,8145
742.644,8136
742.697,8154
742.751,8125
742.804,8266
742.858,8238
742.911,8241
742.965,8228
743.018,8330
743.072,8226
743.125,8306
743.179,8332
743.232,8409
743.285,8525
743.339,8544
743.392,8551
743.446,8516
743.499,8535
743.553,8473
743.606,8642
743.66,8786
743.713,8652
743.766,8575
743.82,8685
743.873,8806
743.927,8793
743.98,8796
744.033,8785
744.087,8913
744.14,8879
744.194,8926
744.247,9048
744.3,9044
744.354,8970
744.407,9024
744.46,9161
744.514,9127
744.567,9121
744.62,9101
744.674,9252
744.727,9193
744.781,9317
744.834,9299
744.887,9339
744.941,9325
744.994,9386
745.047,9477
745.1,9542
745.154,9590
745.207,9593
745.26,9631
745.314,9829
745.367,9807
745.42,9807
745.474,10025
745.527,10123
745.58,10065
745.633,10227
745.687,10354
745.74,10367
745.793,10530
745.846,10495
745.9,10491
745.953,10590
746.006,10727
746.059,10709
746.113,10747
746.166,10833
746.219,10942
746.272,11077
746.325,11008
746.379,11020
746.432,11138
746.485,11144
746.538,11196
746.591,11199
746.645,11329
746.698,11370
746.751,11367
746.804,11539
746.857,11666
746.91,11683
746.964,11882
747.017,11988
747.07,12079
747.123,12359
747.176,12330
747.229,12392
747.282,12597
747.336,12769
747.389,12910
747.442,13072
747.495,13215
747.548,13353
747.601,13593
747.654,13563
747.707,13958
747.76,14104
747.814,14150
747.867,14386
747.92,14675
747.973,14854
748.026,15106
748.079,15425
748.132,15571
748.185,15802
748.238,16033
748.291,16362
748.344,16467
748.397,16692
748.45,17038
748.503,17236
748.556,17362
748.609,17654
748.662,17842
748.715,18273
748.768,18297
748.821,18528
748.874,18589
748.927,18822
748.98,18798
749.033,18696
749.086,18788
749.139,18780
749.192,18880
749.245,18805
749.298,18774
749.351,18749
749.404,18456
749.457,18453
749.51,18353
749.563,18192
749.616,18199
749.669,17931
749.722,17836
749.775,17726
749.828,17386
749.881,17480
749.933,17386
749.986,17229
750.039,17004
750.092,16803
750.145,16811
750.198,16810
750.251,16735
750.304,16549
750.357,16490
750.409,16512
750.462,16369
750.515,16286
750.568,16192
750.621,16107
750.674,16059
750.727,16021
750.779,15948
750.832,15826
750.885,15723
750.938,15457
750.991,15502
751.044,15572
751.096,15453
751.149,15336
751.202,15368
751.255,15402
751.308,15334
751.36,15122
751.413,15132
751.466,15163
751.519,15098
751.571,14995
751.624,15024
751.677,14925
751.73,14894
751.783,15011
751.835,14884
751.888,14900
751.941,15007
751.993,14918
752.046,14896
752.099,14874
752.152,14933
752.204,14855
752.257,14862
752.31,14750
752.363,14824
752.415,14995
752.468,14996
752.521,14828
752.573,14860
752.626,14908
752.679,15030
752.731,15077
752.784,15004
752.837,15046
752.889,15124
752.942,15004
752.995,15075
753.047,15174
753.1,15109
753.153,15063
753.205,15220
753.258,15235
753.31,15290
753.363,15208
753.416,15237
753.468,15200
753.521,15354
753.573,15435
753.626,15388
753.679,15434
753.731,15359
753.784,15452
753.836,15646
753.889,15518
753.942,15599
753.994,15624
754.047,15589
754.099,15724
754.152,15834
754.204,15911
754.257,15959
754.309,15872
754.362,16185
754.414,16114
754.467,16267
754.52,16350
754.572,16046
754.625,16328
754.677,16212
754.73,16318
754.782,16503
754.835,16383
754.887,16648
754.94,16594
754.992,16790
755.044,16768
755.097,16741
755.149,16773
755.202,16909
755.254,16700
755.307,16855
755.359,16991
755.412,16981
755.464,17400
755.517,17443
755.569,17566
755.621,17520
755.674,17436
755.726,17533
755.779,17658
755.831,17669
755.883,17877
755.936,18074
755.988,18156
756.041,18233
756.093,18445
756.145,18570
756.198,18836
756.25,19175
756.302,19358
756.355,19617
756.407,19891
756.46,19993
756.512,20409
756.564,20647
756.617,20708
756.669,21200
756.721,21593
756.774,21939
756.826,22268
756.878,22502
756.93,22969
756.983,23225
757.035,23567
757.087,24049
757.14,24657
757.192,24985
757.244,25647
757.297,26221
757.349,26701
757.401,27207
757.453,27804
757.506,28408
757.558,29075
757.61,29372
757.662,30013
757.715,30869
757.767,31330
757.819,31766
757.871,32393
757.923,32550
757.976,32895
758.028,33267
758.08,33535
758.132,33713
758.185,33869
758.237,33673
758.289,33610
758.341,33902
758.393,33707
758.445,33452
758.498,33407
758.55,33449
758.602,33210
758.654,32921
758.706,32660
758.758,32527
758.811,32211
758.863,32052
758.915,31514
758.967,31167
759.019,31141
759.071,30529
759.123,30508
759.175,30139
759.228,30085
759.28,29717
759.332,29387
759.384,29111
759.436,28805
759.488,28427
759.54,28492
759.592,28138
759.644,28132
759.696,27901
759.748,27611
759.8,27436
759.852,27213
759.904,26957
759.957,27264
760.009,26990
760.061,26907
760.113,26827
760.165,26624
760.217,26448
760.269,26362
760.321,26060
760.373,26143
760.425,25998
760.477,25830
760.529,26155
760.581,25936
760.633,25907
760.685,26015
760.737,25826
760.789,25910
760.841,25743
760.892,25663
760.944,25665
760.996,25600
761.048,25384
761.1,25571
761.152,25898
761.204,25854
761.256,25822
761.308,25774
761.36,26020
761.412,26164
761.464,26240
761.516,26141
761.567,26201
761.619,26265
761.671,26397
761.723,26167
761.775,26375
761.827,26347
761.879,26388
761.931,26474
761.982,26629
762.034,26591
762.086,26498
762.138,26559
762.19,26961
762.242,27064
762.294,27053
762.345,27156
762.397,26893
762.449,27201
762.501,27309
762.553,27133
762.604,27338
762.656,27455
762.708,27594
762.76,27702
762.812,27991
762.863,27898
762.915,27810
762.967,27999
763.019,28203
763.07,27943
763.122,28300
763.174,28552
763.226,28479
763.277,28673
763.329,28706
763.381,28731
763.433,28845
763.484,28886
763.536,28916
763.588,28946
763.639,29075
763.691,28937
763.743,28956
763.795,29518
763.846,29542
763.898,29603
763.95,29733
764.001,29665
764.053,29859
764.105,29869
764.156,29853
764.208,30301
764.26,30087
764.311,29986
764.363,30174
764.414,30139
764.466,30222
764.518,30223
764.569,30295
764.621,30531
764.673,30582
764.724,30698
764.776,30662
764.827,30956
764.879,30575
764.931,30968
764.982,30955
765.034,31394
765.085,31418
765.137,31415
765.188,31509
765.24,31675
765.292,31642
765.343,31960
765.395,31726
765.446,31831
765.498,32018
765.549,32243
765.601,32189
765.652,32126
765.704,32690
765.755,32500
765.807,32482
765.858,32484
765.91,32921
765.961,32812
766.013,33003
766.064,32886
766.116,32955
766.167,32916
766.219,32902
766.27,32760
766.322,32556
766.373,32478
766.425,32372
766.476,31873
766.527,31898
766.579,31616
766.63,31593
766.682,31678
766.733,31650
766.785,31502
766.836,31568
766.887,31946
766.939,32332
766.99,32875
767.042,33400
767.093,33626
767.144,34119
767.196,35240
767.247,36241
767.298,36893
767.35,37739
767.401,38699
767.453,39982
767.504,40614
767.555,41443
767.607,42451
767.658,43903
767.709,44882
767.761,45487
767.812,46239
767.863,46602
767.914,46926
767.966,47620
768.017,48409
768.068,49369
768.12,49803
768.171,50699
768.222,51957
768.274,53312
768.325,54226
768.376,55045
768.427,55830
768.479,56734
768.53,57343
768.581,57064
768.632,58242
768.684,58451
768.735,59060
768.786,59794
768.837,60583
768.888,60618
768.94,59610
768.991,59458
769.042,60188
769.093,59903
769.144,59130
769.196,58819
769.247,58287
769.298,57628
769.349,57131
769.4,56675
769.452,56290
769.503,55626
769.554,54480
769.605,54735
769.656,54277
769.707,53801
769.758,53513
769.81,52797
769.861,52398
769.912,52091
769.963,51421
770.014,50913
770.065,50750
770.116,50873
770.167,50223
770.218,49432
770.27,49151
770.321,48757
770.372,48614
770.423,48094
770.474,47593
770.525,47091
770.576,47050
770.627,46646
770.678,46098
770.729,45522
770.78,45249
770.831,44825
770.882,44719
770.933,44190
770.984,43960
771.035,43331
771.086,42836
771.137,42642
771.188,42384
771.239,42445
771.29,41903
771.341,41830
771.392,41622
771.443,41514
771.494,41034
771.545,40727
771.596,40774
771.647,40790
771.698,41030
771.749,40995
771.8,40374
771.851,40908
771.902,41010
771.953,40782
772.004,40726
772.054,41130
772.105,41223
772.156,41901
772.207,42287
772.258,42444
772.309,42554
772.36,42616
772.411,42741
772.462,43077
772.512,43073
772.563,43495
772.614,43743
772.665,44121
772.716,44681
772.767,44607
772.818,45020
772.868,44869
772.919,45024
772.97,45078
773.021,45506
773.072,46175
773.123,45886
773.173,46198
773.224,46050
773.275,46596
773.326,46587
773.377,46491
773.427,46831
773.478,47213
773.529,47078
773.58,47233
773.63,47430
773.681,47664
773.732,48360
773.783,48264
773.833,48810
773.884,48872
773.935,49555
773.986,50094
774.036,49680
774.087,49878
774.138,49746
774.188,50071
774.239,50392
774.29,50852
774.341,51612
774.391,51489
774.442,51342
774.493,51058
774.543,52150
774.594,52998
774.645,52787
774.695,52659
774.746,52746
774.797,53203
774.847,53382
774.898,53355
774.949,53401
774.999,54054
775.05,54938
775.1,55172
775.151,54882
775.202,55288
775.252,56164
775.303,55751
775.353,55905
775.404,56636
775.455,56302
775.505,56335
775.556,56368
775.606,57475
775.657,57184
775.707,57276
775.758,57786
775.809,58023
775.859,58998
775.91,59419
775.96,59139
776.011,59069
776.061,58781
776.112,59149
776.162,59330
776.213,59914
776.263,60177
776.314,60152
776.364,60092
776.415,60458
776.465,60313
776.516,60107
776.566,59599
776.617,59946
776.667,59615
776.718,59509
776.768,59753
776.819,60244
776.869,60359
776.919,60831
776.97,61002
777.02,60136
777.071,59383
777.121,60008
777.172,59977
777.222,59414
777.272,59382
777.323,59925
777.373,59984
777.424,60636
777.474,60604
777.524,61194
777.575,60770
777.625,60549
777.675,61743
777.726,61411
777.776,61469
777.826,61878
777.877,62557
777.927,62693
777.977,63176
778.028,62786
778.078,63217
778.128,61974
778.179,62903
778.229,62449
778.279,61484