File: Physics/PHYS 331 - Advanced Laboratory/PHYS 331 Experiments/PHYS 331 Raman Spectroscopy/PHYS 331 RS TiO2 Data/PHYS 331 RS TI02 Stokes (3 Sec) Run 1.csv
794.899,3793
794.951,3978
795.004,4059
795.056,4129
795.109,4246
795.161,4383
795.213,4611
795.266,4824
795.318,5014
795.371,5358
795.423,5683
795.476,6132
795.528,6533
795.581,7093
795.633,7533
795.686,8098
795.738,8706
795.79,9326
795.843,9960
795.895,10542
795.948,11148
796,11658
796.053,12305
796.105,12825
796.157,13414
796.21,13878
796.262,14359
796.315,14887
796.367,15295
796.419,15648
796.472,16000
796.524,16302
796.576,16692
796.629,17054
796.681,17383
796.734,17502
796.786,17863
796.838,18004
796.891,18184
796.943,18361
796.995,18558
797.048,18715
797.1,19115
797.152,19177
797.205,19265
797.257,19544
797.309,19805
797.362,19997
797.414,20015
797.466,20238
797.518,20442
797.571,20567
797.623,20739
797.675,20873
797.728,21175
797.78,21167
797.832,21496
797.884,21534
797.937,21680
797.989,21756
798.041,21707
798.093,22008
798.146,22224
798.198,22380
798.25,22476
798.302,22650
798.355,22717
798.407,22864
798.459,22933
798.511,23061
798.563,23213
798.616,23392
798.668,23478
798.72,23486
798.772,23651
798.824,23745
798.877,23829
798.929,23882
798.981,23951
799.033,24122
799.085,24187
799.137,24259
799.19,24248
799.242,24313
799.294,24268
799.346,24289
799.398,24364
799.45,24359
799.503,24402
799.555,24447
799.607,24401
799.659,24376
799.711,24344
799.763,24215
799.815,24440
799.867,24252
799.919,24202
799.972,24144
800.024,23915
800.076,24019
800.128,23886
800.18,23720
800.232,23625
800.284,23521
800.336,23368
800.388,23322
800.44,23073
800.492,22988
800.544,22747
800.596,22760
800.648,22508
800.7,22537
800.753,22309
800.805,22137
800.857,22112
800.909,21929
800.961,21878
801.013,21767
801.065,21664
801.117,21417
801.169,21311
801.221,21222
801.273,21167
801.325,21123
801.377,20976
801.429,20886
801.481,20684
801.533,20791
801.584,20612
801.636,20573
801.688,20529
801.74,20390
801.792,20453
801.844,20269
801.896,20166
801.948,20117
802,20074
802.052,19959
802.104,20012
802.156,19771
802.208,19752
802.26,19752
802.312,19516
802.363,19526
802.415,19256
802.467,19236
802.519,19270
802.571,19131
802.623,19075
802.675,18950
802.727,18792
802.779,18667
802.83,18620
802.882,18606
802.934,18369
802.986,18189
803.038,18157
803.09,18195
803.141,17946
803.193,17883
803.245,17748
803.297,17761
803.349,17613
803.401,17514
803.452,17453
803.504,17409
803.556,17366
803.608,17209
803.66,17214
803.711,17204
803.763,17284
803.815,17206
803.867,17200
803.919,17253
803.97,17178
804.022,17149
804.074,17125
804.126,17170
804.177,17076
804.229,17257
804.281,17318
804.333,17324
804.384,17267
804.436,17427
804.488,17362
804.539,17441
804.591,17495
804.643,17461
804.695,17518
804.746,17692
804.798,17652
804.85,17641
804.901,17721
804.953,17687
805.005,17722
805.056,17743
805.108,17849
805.16,17718
805.211,17855
805.263,17888
805.315,17878
805.366,17853
805.418,17912
805.47,17815
805.521,17973
805.573,17933
805.625,17919
805.676,17961
805.728,17854
805.779,17978
805.831,18004
805.883,17933
805.934,17977
805.986,18001
806.037,17999
806.089,18000
806.141,18090
806.192,18203
806.244,17933
806.295,18117
806.347,18112
806.399,18207
806.45,18244
806.502,18287
806.553,18226
806.605,18368
806.656,18254
806.708,18386
806.759,18405
806.811,18428
806.862,18567
806.914,18594
806.965,18632
807.017,18723
807.068,18686
807.12,18761
807.171,18802
807.223,18877
807.274,18856
807.326,18850
807.377,18806
807.429,18911
807.48,18978
807.532,18963
807.583,18931
807.635,18961
807.686,18880
807.738,18934
807.789,19026
807.841,19001
807.892,19039
807.943,18977
807.995,19101
808.046,18936
808.098,19109
808.149,19032
808.201,18961
808.252,19042
808.303,19086
808.355,19061
808.406,19050
808.457,19154
808.509,19011
808.56,19040
808.612,19201
808.663,19151
808.714,19177
808.766,19065
808.817,19097
808.868,19142
808.92,19168
808.971,19246
809.022,19158
809.074,19233
809.125,19242
809.176,19234
809.228,19429
809.279,19404
809.33,19431
809.382,19510
809.433,19533
809.484,19604
809.536,19665
809.587,19803
809.638,19934
809.689,19985
809.741,20037
809.792,20119
809.843,20232
809.895,20276
809.946,20366
809.997,20454
810.048,20612
810.1,20772
810.151,20852
810.202,21072
810.253,21158
810.305,21362
810.356,21509
810.407,21690
810.458,21792
810.509,21981
810.561,22301
810.612,22556
810.663,22684
810.714,23066
810.765,23284
810.817,23592
810.868,23919
810.919,24193
810.97,24587
811.021,24876
811.072,25266
811.124,25429
811.175,25937
811.226,26339
811.277,26750
811.328,27263
811.379,27666
811.43,28178
811.482,28441
811.533,29118
811.584,29537
811.635,30061
811.686,30523
811.737,31094
811.788,31916
811.839,32336
811.89,32983
811.941,33551
811.993,34219
812.044,34855
812.095,35608
812.146,36235
812.197,36873
812.248,37657
812.299,38172
812.35,38930
812.401,39542
812.452,40341
812.503,40893
812.554,41639
812.605,42429
812.656,43025
812.707,43825
812.758,44641
812.809,45203
812.86,45740
812.911,46271
812.962,46847
813.013,47390
813.064,47982
813.115,48148
813.166,48557
813.217,49073
813.268,48911
813.319,49068
813.37,49165
813.421,48997
813.472,48745
813.523,48661
813.574,48248
813.625,47871
813.676,47226
813.727,46575
813.778,45743
813.828,45127
813.879,44390
813.93,43473
813.981,42334
814.032,41341
814.083,40523
814.134,39474
814.185,38438
814.236,37498
814.286,36407
814.337,35604
814.388,34378
814.439,33387
814.49,32564
814.541,31760
814.592,30925
814.642,29972
814.693,29225
814.744,28281
814.795,27606
814.846,27024
814.897,26414
814.947,25670
814.998,25104
815.049,24471
815.1,23960
815.151,23464
815.201,23033
815.252,22661
815.303,22147
815.354,21713
815.405,21398
815.455,21022
815.506,20788
815.557,20458
815.608,20123
815.658,19747
815.709,19479
815.76,19264
815.811,19028
815.861,18816
815.912,18514
815.963,18371
816.014,18167
816.064,18073
816.115,17930
816.166,17576
816.216,17541
816.267,17366
816.318,17328
816.368,17230
816.419,17070
816.47,16942
816.521,16965
816.571,16773
816.622,16726
816.673,16725
816.723,16607
816.774,16446
816.824,16482
816.875,16476
816.926,16345
816.976,16309
817.027,16287
817.078,16181
817.128,16175
817.179,16174
817.229,16148
817.28,16121
817.331,16052
817.381,16137
817.432,16073
817.482,16019
817.533,16044
817.584,16020
817.634,16053
817.685,15924
817.735,15966
817.786,15916
817.836,15887
817.887,16013
817.938,16096
817.988,16065
818.039,16030
818.089,15964
818.14,15993
818.19,15951
818.241,15927
818.291,16069
818.342,16022
818.392,16009
818.443,16047
818.493,16052
818.544,16041
818.594,15979
818.645,16036
818.695,16028
818.746,16145
818.796,16063
818.847,16035
818.897,16030
818.947,16062
818.998,16056
819.048,16021
819.099,16063
819.149,16058
819.2,16064
819.25,16243
819.301,16099
819.351,16103
819.401,16144
819.452,16169
819.502,16245
819.553,16194
819.603,16271
819.653,16255
819.704,16477
819.754,16421
819.804,16492
819.855,16496
819.905,16543
819.956,16514
820.006,16524
820.056,16590
820.107,16745
820.157,16761
820.207,16839
820.258,16906
820.308,16893
820.358,17044
820.409,17100
820.459,17112
820.509,17235
820.56,17340
820.61,17463
820.66,17508
820.71,17562
820.761,17774
820.811,17741
820.861,17890
820.912,18078
820.962,18200
821.012,18354
821.062,18477
821.113,18639
821.163,18605
821.213,18824
821.263,19073
821.314,19282
821.364,19400
821.414,19601
821.464,19814
821.514,19993
821.565,20294
821.615,20301
821.665,20616
821.715,20816
821.765,21013
821.816,21206
821.866,21487
821.916,21937
821.966,22047
822.016,22389
822.066,22612
822.117,22917
822.167,23300
822.217,23511
822.267,23869
822.317,24308
822.367,24408
822.417,24833
822.468,25241
822.518,25558
822.568,25966
822.618,26118
822.668,26691
822.718,27105
822.768,27466
822.818,27970
822.868,28413
822.918,28822
822.969,29290
823.019,29844
823.069,30063
823.119,30748
823.169,31327
823.219,31939
823.269,32400
823.319,32908
823.369,33436
823.419,33976
823.469,34431
823.519,34920
823.569,35634
823.619,36119
823.669,36590
823.719,37218
823.769,37514
823.819,38000
823.869,38450
823.919,38805
823.969,39132
824.019,39426
824.069,39424
824.119,39649
824.169,39671
824.219,39765
824.269,39842
824.319,39549
824.369,39602
824.419,39449
824.469,39149
824.519,38814
824.569,38550
824.618,37955
824.668,37491
824.718,37124
824.768,36416
824.818,35885
824.868,35157
824.918,34782
824.968,34111
825.018,33406
825.068,32843
825.117,32170
825.167,31600
825.217,30919
825.267,30178
825.317,29606
825.367,28959
825.417,28268
825.466,27798
825.516,27124
825.566,26631
825.616,26240
825.666,25561
825.715,25129
825.765,24672
825.815,24134
825.865,23570
825.915,23283
825.964,23012
826.014,22479
826.064,22081
826.114,21784
826.164,21459
826.213,21029
826.263,20854
826.313,20504
826.363,20232
826.412,19931
826.462,19651
826.512,19501
826.562,19233
826.611,19018
826.661,18793
826.711,18732
826.76,18459
826.81,18235
826.86,18010
826.91,17874
826.959,17718
827.009,17615
827.059,17417
827.108,17235
827.158,17053
827.208,17051
827.257,16888
827.307,16815
827.357,16632
827.406,16586
827.456,16414
827.506,16282
827.555,16284
827.605,16131
827.655,16106
827.704,15808
827.754,15897
827.803,15731
827.853,15694
827.903,15527
827.952,15492
828.002,15405
828.051,15338
828.101,15417
828.151,15254
828.2,15205
828.25,15214
828.299,15106
828.349,14948
828.398,14866
828.448,14839
828.497,14789
828.547,14731
828.596,14646
828.646,14565
828.696,14498
828.745,14479
828.795,14460
828.844,14372
828.894,14349
828.943,14235
828.993,14216
829.042,14270
829.092,14210
829.141,13986
829.191,14059
829.24,14070
829.289,13939
829.339,13865
829.388,13848
829.438,13799
829.487,13798
829.537,13764
829.586,13740
829.636,13657
829.685,13587
829.734,13671
829.784,13621
829.833,13538
829.883,13471
829.932,13517
829.981,13392
830.031,13305
830.08,13384
830.13,13273
830.179,13268
830.228,13186
830.278,13229
830.327,13091
830.377,13065
830.426,12986
830.475,13110
830.525,13012
830.574,12955
830.623,12947
830.673,12904
830.722,12828
830.771,12761
830.821,12724
830.87,12727
830.919,12660
830.968,12623
831.018,12621
831.067,12612
831.116,12563
831.166,12514
831.215,12503
831.264,12457
831.313,12463
831.363,12347
831.412,12340
831.461,12354
831.51,12202
831.56,12255
831.609,12140
831.658,12086
831.707,12089
831.757,12026
831.806,11955
831.855,11917
831.904,11930
831.953,11895
832.003,11846
832.052,11864
832.101,11773
832.15,11794
832.199,11677
832.249,11676
832.298,11635
832.347,11497
832.396,11479
832.445,11462
832.494,11420
832.543,11485
832.593,11350
832.642,11331
832.691,11385
832.74,11287
832.789,11250
832.838,11154
832.887,11108
832.936,11245
832.986,11169
833.035,11069
833.084,11062
833.133,11055
833.182,10988
833.231,10924
833.28,10855
833.329,10842
833.378,10847
833.427,10720
833.476,10752
833.525,10776
833.574,10750
833.623,10715
833.672,10736
833.721,10647
833.77,10687
833.819,10651
833.868,10520
833.917,10630
833.966,10590
834.015,10521
834.064,10461
834.113,10493
834.162,10541
834.211,10442
834.26,10447
834.309,10374
834.358,10341
834.407,10406
834.456,10355
834.505,10381
834.554,10342
834.603,10211
834.652,10254
834.701,10247
834.75,10318
834.799,10227
834.848,10221
834.897,10206
834.945,10262
834.994,10281
835.043,10260
835.092,10269
835.141,10193
835.19,10127
835.239,10178
835.288,10108
835.336,10112
835.385,10121
835.434,10164
835.483,10117
835.532,10037
835.581,10104
835.629,10085
835.678,10175
835.727,10084
835.776,10062
835.825,10022
835.874,9999
835.922,9944
835.971,10022
836.02,10003
836.069,10009
836.117,9993
836.166,10039
836.215,9943
836.264,9938
836.313,9939
836.361,9894
836.41,9945
836.459,9931
836.508,9976
836.556,9877
836.605,9903
836.654,9873
836.702,9908
836.751,9896
836.8,9855
836.849,9787
836.897,9854
836.946,9823
836.995,9798
837.043,9817
837.092,9819
837.141,9820
837.189,9768
837.238,9751
837.287,9760
837.335,9790
837.384,9786
837.433,9782
837.481,9725
837.53,9726
837.579,9681
837.627,9780
837.676,9654
837.724,9710
837.773,9686
837.822,9701
837.87,9629
837.919,9661
837.967,9701
838.016,9630
838.065,9616
838.113,9654
838.162,9646
838.21,9606
838.259,9596
838.307,9626
838.356,9557
838.404,9571
838.453,9557
838.502,9564
838.55,9606
838.599,9508
838.647,9523
838.696,9516
838.744,9563
838.793,9578
838.841,9566
838.89,9559
838.938,9456
838.987,9515
839.035,9512
839.084,9511
839.132,9528
839.18,9493
839.229,9598
839.277,9533
839.326,9485
839.374,9508
839.423,9492
839.471,9552
839.52,9474
839.568,9465
839.616,9453
839.665,9549
839.713,9442
839.762,9461
839.81,9504
839.858,9479
839.907,9478
839.955,9485
840.004,9423
840.052,9427
840.1,9362
840.149,9336
840.197,9415
840.245,9396
840.294,9389
840.342,9323
840.39,9381
840.439,9358
840.487,9334
840.535,9279
840.584,9398
840.632,9325
840.68,9400
840.729,9257
840.777,9319
840.825,9329
840.873,9284
840.922,9302
840.97,9172
841.018,9282
841.067,9260
841.115,9272
841.163,9286
841.211,9284
841.26,9260
841.308,9246
841.356,9237
841.404,9216
841.452,9108
841.501,9221
841.549,9186
841.597,9212
841.645,9172
841.694,9152
841.742,9102
841.79,9071
841.838,9168
841.886,9172
841.934,9158
841.983,9084
842.031,9107
842.079,9056
842.127,9091
842.175,9053
842.223,9026
842.271,9102
842.32,9122
842.368,9144
842.416,9081
842.464,9055
842.512,9026
842.56,9079
842.608,9054
842.656,9025
842.704,9070
842.753,9039
842.801,9020
842.849,9014
842.897,8986
842.945,8959
842.993,9015
843.041,8985
843.089,8949
843.137,8970
843.185,9069
843.233,9038
843.281,9002
843.329,9041
843.377,8986
843.425,9023
843.473,8971
843.521,8991
843.569,9062
843.617,9031
843.665,8991
843.713,8997
843.761,8980
843.809,9005
843.857,9001
843.905,8976
843.953,9001
844.001,8939
844.049,8964
844.097,8946
844.145,8940
844.193,8969
844.241,9020
844.289,8939
844.336,8958
844.384,8963
844.432,8918
844.48,8915
844.528,8932
844.576,8936
844.624,8952
844.672,8918
844.72,8904
844.767,8885
844.815,8899
844.863,8953
844.911,8991
844.959,8926
845.007,8861
845.055,8867
845.102,8919
845.15,8969
845.198,8928
845.246,8854
845.294,8930
845.341,8929
845.389,8878
845.437,8837
845.485,8933
845.533,8918
845.58,8904
845.628,8839
845.676,8863
845.724,8830
845.771,8867
845.819,8830
845.867,8881
845.915,8913
845.962,8792
846.01,8859
846.058,8792
846.106,8770
846.153,8853
846.201,8856
846.249,8883