File: Physics/PHYS 331 - Advanced Laboratory/PHYS 331 Experiments/PHYS 331 Raman Spectroscopy/PHYS 331 RS TiO2 Data/PHYS 331 RS TI02 Antistokes (3 Sec) Run 1.csv
724.376,3827
724.431,3879
724.485,3897
724.54,3875
724.595,3912
724.65,3896
724.705,3901
724.76,3931
724.815,3884
724.87,3901
724.924,3916
724.979,3968
725.034,3966
725.089,3957
725.144,3945
725.199,3949
725.253,3891
725.308,3991
725.363,3925
725.418,3917
725.473,3914
725.527,3971
725.582,3973
725.637,3951
725.692,3948
725.747,4003
725.801,4038
725.856,3964
725.911,4010
725.966,4006
726.02,4028
726.075,3999
726.13,4013
726.185,4044
726.24,4052
726.294,4047
726.349,4032
726.404,4049
726.458,4056
726.513,4041
726.568,4054
726.623,4041
726.677,4083
726.732,4091
726.787,4024
726.842,4065
726.896,4007
726.951,4039
727.006,4037
727.06,4022
727.115,4059
727.17,4049
727.224,4063
727.279,4092
727.334,4072
727.388,4044
727.443,4052
727.498,4050
727.552,4102
727.607,4028
727.662,4053
727.716,4062
727.771,4074
727.826,4073
727.88,4111
727.935,4045
727.99,4131
728.044,4075
728.099,4100
728.153,4123
728.208,4049
728.263,4078
728.317,4086
728.372,4074
728.426,4135
728.481,4058
728.536,4114
728.59,4107
728.645,4036
728.699,4086
728.754,4050
728.809,4088
728.863,4153
728.918,4119
728.972,4128
729.027,4096
729.081,4141
729.136,4131
729.19,4096
729.245,4081
729.299,4047
729.354,4097
729.408,4188
729.463,4082
729.518,4094
729.572,4115
729.627,4140
729.681,4135
729.736,4104
729.79,4180
729.845,4222
729.899,4193
729.954,4142
730.008,4158
730.062,4151
730.117,4143
730.171,4204
730.226,4246
730.28,4210
730.335,4190
730.389,4198
730.444,4207
730.498,4203
730.553,4216
730.607,4193
730.661,4211
730.716,4224
730.77,4222
730.825,4213
730.879,4245
730.934,4251
730.988,4170
731.042,4285
731.097,4240
731.151,4234
731.206,4258
731.26,4238
731.314,4239
731.369,4276
731.423,4242
731.477,4306
731.532,4315
731.586,4259
731.641,4271
731.695,4300
731.749,4261
731.804,4332
731.858,4281
731.912,4320
731.967,4292
732.021,4341
732.075,4311
732.13,4313
732.184,4283
732.238,4350
732.293,4402
732.347,4277
732.401,4319
732.455,4338
732.51,4374
732.564,4312
732.618,4321
732.673,4339
732.727,4394
732.781,4396
732.835,4346
732.89,4353
732.944,4375
732.998,4348
733.052,4382
733.107,4373
733.161,4385
733.215,4430
733.269,4366
733.324,4404
733.378,4401
733.432,4494
733.486,4429
733.541,4405
733.595,4443
733.649,4389
733.703,4390
733.757,4401
733.812,4498
733.866,4497
733.92,4490
733.974,4472
734.028,4461
734.083,4480
734.137,4491
734.191,4441
734.245,4489
734.299,4473
734.353,4607
734.408,4555
734.462,4598
734.516,4568
734.57,4600
734.624,4545
734.678,4562
734.732,4612
734.786,4549
734.841,4618
734.895,4553
734.949,4600
735.003,4549
735.057,4608
735.111,4617
735.165,4649
735.219,4645
735.273,4684
735.327,4639
735.382,4667
735.436,4634
735.49,4691
735.544,4632
735.598,4694
735.652,4728
735.706,4682
735.76,4698
735.814,4749
735.868,4702
735.922,4753
735.976,4762
736.03,4764
736.084,4710
736.138,4734
736.192,4772
736.246,4772
736.3,4710
736.354,4782
736.408,4723
736.462,4728
736.516,4779
736.57,4778
736.624,4824
736.678,4830
736.732,4838
736.786,4860
736.84,4891
736.894,4799
736.948,4777
737.002,4837
737.056,4844
737.11,4844
737.164,4940
737.218,4935
737.272,4927
737.326,4902
737.38,4956
737.433,4962
737.487,4973
737.541,4981
737.595,5046
737.649,5035
737.703,4906
737.757,4953
737.811,4999
737.865,5002
737.919,5048
737.972,4971
738.026,4991
738.08,4972
738.134,5051
738.188,5027
738.242,5045
738.296,5058
738.349,5093
738.403,5041
738.457,5051
738.511,5093
738.565,5122
738.619,5100
738.672,5112
738.726,5149
738.78,5105
738.834,5087
738.888,5101
738.941,5128
738.995,5145
739.049,5187
739.103,5178
739.157,5148
739.21,5238
739.264,5176
739.318,5196
739.372,5289
739.426,5239
739.479,5256
739.533,5286
739.587,5238
739.641,5199
739.694,5267
739.748,5306
739.802,5287
739.855,5326
739.909,5377
739.963,5414
740.017,5403
740.07,5378
740.124,5386
740.178,5430
740.231,5426
740.285,5381
740.339,5477
740.393,5442
740.446,5464
740.5,5519
740.554,5542
740.607,5460
740.661,5472
740.715,5547
740.768,5566
740.822,5469
740.876,5533
740.929,5555
740.983,5566
741.037,5644
741.09,5656
741.144,5660
741.197,5659
741.251,5644
741.305,5622
741.358,5700
741.412,5720
741.465,5728
741.519,5815
741.573,5795
741.626,5871
741.68,5921
741.733,5891
741.787,5903
741.841,5902
741.894,5997
741.948,6004
742.001,6030
742.055,6016
742.108,6049
742.162,5946
742.215,5986
742.269,6073
742.323,6113
742.376,6102
742.43,6098
742.483,6050
742.537,6166
742.59,6267
742.644,6252
742.697,6172
742.751,6236
742.804,6354
742.858,6309
742.911,6296
742.965,6339
743.018,6326
743.072,6374
743.125,6403
743.179,6357
743.232,6372
743.285,6411
743.339,6479
743.392,6464
743.446,6446
743.499,6518
743.553,6680
743.606,6727
743.66,6579
743.713,6655
743.766,6727
743.82,6595
743.873,6713
743.927,6737
743.98,6736
744.033,6760
744.087,6774
744.14,6782
744.194,6890
744.247,6842
744.3,6843
744.354,6917
744.407,6953
744.46,7004
744.514,7042
744.567,7002
744.62,7087
744.674,7097
744.727,7073
744.781,7158
744.834,7066
744.887,7080
744.941,7121
744.994,7198
745.047,7190
745.1,7314
745.154,7225
745.207,7293
745.26,7411
745.314,7480
745.367,7499
745.42,7545
745.474,7605
745.527,7626
745.58,7698
745.633,7721
745.687,7804
745.74,7936
745.793,8050
745.846,7959
745.9,7939
745.953,7992
746.006,8092
746.059,8149
746.113,8146
746.166,8217
746.219,8386
746.272,8375
746.325,8299
746.379,8382
746.432,8444
746.485,8485
746.538,8514
746.591,8561
746.645,8699
746.698,8707
746.751,8770
746.804,8786
746.857,8959
746.91,9044
746.964,9097
747.017,9099
747.07,9228
747.123,9242
747.176,9417
747.229,9487
747.282,9524
747.336,9636
747.389,9810
747.442,9951
747.495,10021
747.548,10151
747.601,10263
747.654,10339
747.707,10475
747.76,10652
747.814,10760
747.867,10907
747.92,11106
747.973,11280
748.026,11518
748.079,11527
748.132,11850
748.185,12028
748.238,12119
748.291,12297
748.344,12583
748.397,12695
748.45,12942
748.503,13050
748.556,13218
748.609,13386
748.662,13688
748.715,13622
748.768,13839
748.821,13965
748.874,14110
748.927,14113
748.98,14148
749.033,14182
749.086,14147
749.139,14204
749.192,14184
749.245,14164
749.298,14102
749.351,14129
749.404,14080
749.457,14009
749.51,13887
749.563,13669
749.616,13662
749.669,13534
749.722,13400
749.775,13348
749.828,13250
749.881,13211
749.933,13135
749.986,12944
750.039,12903
750.092,12774
750.145,12740
750.198,12606
750.251,12566
750.304,12517
750.357,12435
750.409,12359
750.462,12325
750.515,12255
750.568,12188
750.621,12124
750.674,12118
750.727,12118
750.779,11982
750.832,11854
750.885,11857
750.938,11782
750.991,11676
751.044,11687
751.096,11721
751.149,11707
751.202,11676
751.255,11610
751.308,11519
751.36,11614
751.413,11434
751.466,11439
751.519,11301
751.571,11275
751.624,11335
751.677,11188
751.73,11249
751.783,11293
751.835,11251
751.888,11373
751.941,11273
751.993,11288
752.046,11272
752.099,11297
752.152,11209
752.204,11204
752.257,11202
752.31,11182
752.363,11180
752.415,11210
752.468,11447
752.521,11332
752.573,11224
752.626,11258
752.679,11398
752.731,11391
752.784,11358
752.837,11438
752.889,11416
752.942,11490
752.995,11445
753.047,11418
753.1,11524
753.153,11479
753.205,11469
753.258,11551
753.31,11539
753.363,11419
753.416,11617
753.468,11627
753.521,11449
753.573,11586
753.626,11558
753.679,11692
753.731,11721
753.784,11712
753.836,11781
753.889,11720
753.942,11745
753.994,11832
754.047,11874
754.099,11976
754.152,11865
754.204,11909
754.257,12026
754.309,12017
754.362,12184
754.414,12107
754.467,12222
754.52,12235
754.572,12308
754.625,12230
754.677,12293
754.73,12251
754.782,12296
754.835,12385
754.887,12435
754.94,12454
754.992,12513
755.044,12597
755.097,12647
755.149,12594
755.202,12654
755.254,12736
755.307,12624
755.359,12864
755.412,12888
755.464,13040
755.517,13137
755.569,13107
755.621,13146
755.674,13084
755.726,13225
755.779,13319
755.831,13361
755.883,13518
755.936,13684
755.988,13759
756.041,13806
756.093,13953
756.145,14155
756.198,14179
756.25,14361
756.302,14631
756.355,14710
756.407,14990
756.46,15030
756.512,15203
756.564,15435
756.617,15625
756.669,15988
756.721,16240
756.774,16556
756.826,16827
756.878,16923
756.93,17246
756.983,17535
757.035,17765
757.087,18237
757.14,18531
757.192,18829
757.244,19199
757.297,19785
757.349,20059
757.401,20450
757.453,20698
757.506,21207
757.558,21738
757.61,22297
757.662,22461
757.715,22923
757.767,23355
757.819,23714
757.871,24199
757.923,24449
757.976,24701
758.028,24921
758.08,25139
758.132,25250
758.185,25370
758.237,25502
758.289,25311
758.341,25227
758.393,25167
758.445,25196
758.498,24840
758.55,24915
758.602,24751
758.654,24513
758.706,24554
758.758,24154
758.811,24184
758.863,24024
758.915,23722
758.967,23391
759.019,23368
759.071,23030
759.123,22888
759.175,22811
759.228,22643
759.28,22359
759.332,21991
759.384,21828
759.436,21560
759.488,21341
759.54,21388
759.592,21219
759.644,20951
759.696,20911
759.748,20826
759.8,20608
759.852,20411
759.904,20295
759.957,20163
760.009,20190
760.061,20382
760.113,20191
760.165,19972
760.217,19807
760.269,19768
760.321,19657
760.373,19563
760.425,19538
760.477,19548
760.529,19477
760.581,19461
760.633,19475
760.685,19350
760.737,19485
760.789,19632
760.841,19451
760.892,19381
760.944,19292
760.996,19264
761.048,19260
761.1,19442
761.152,19363
761.204,19228
761.256,19360
761.308,19343
761.36,19406
761.412,19530
761.464,19783
761.516,19853
761.567,19784
761.619,19611
761.671,19764
761.723,19765
761.775,19765
761.827,19689
761.879,19637
761.931,19805
761.982,19894
762.034,19968
762.086,19961
762.138,19984
762.19,20230
762.242,20342
762.294,20227
762.345,20201
762.397,20202
762.449,20182
762.501,20520
762.553,20251
762.604,20394
762.656,20452
762.708,20629
762.76,20976
762.812,20861
762.863,20728
762.915,20969
762.967,21098
763.019,21204
763.07,21188
763.122,21297
763.174,21258
763.226,21117
763.277,21358
763.329,21292
763.381,21461
763.433,21459
763.484,21697
763.536,21771
763.588,21783
763.639,21862
763.691,21782
763.743,21900
763.795,22163
763.846,22204
763.898,22229
763.95,22393
764.001,22243
764.053,22407
764.105,22653
764.156,22657
764.208,22687
764.26,22778
764.311,22797
764.363,22666
764.414,22783
764.466,22750
764.518,22525
764.569,22990
764.621,22899
764.673,22889
764.724,22986
764.776,23066
764.827,23084
764.879,22977
764.931,23127
764.982,23219
765.034,23660
765.085,23590
765.137,23551
765.188,23637
765.24,23506
765.292,23802
765.343,24074
765.395,23927
765.446,23739
765.498,23946
765.549,24123
765.601,24130
765.652,24059
765.704,24399
765.755,24213
765.807,24351
765.858,24228
765.91,24707
765.961,24654
766.013,24653
766.064,24750
766.116,24775
766.167,24687
766.219,24468
766.27,24388
766.322,24314
766.373,24434
766.425,24461
766.476,24235
766.527,24056
766.579,23901
766.63,23629
766.682,23564
766.733,23649
766.785,23610
766.836,23703
766.887,24065
766.939,24154
766.99,24511
767.042,24869
767.093,25197
767.144,25858
767.196,26608
767.247,27135
767.298,27798
767.35,28189
767.401,29093
767.453,29578
767.504,30256
767.555,30980
767.607,31893
767.658,32632
767.709,33236
767.761,34069
767.812,34601
767.863,34951
767.914,35124
767.966,35329
768.017,36106
768.068,36997
768.12,37593
768.171,38014
768.222,38719
768.274,39804
768.325,40872
768.376,41338
768.427,42158
768.479,42532
768.53,42892
768.581,42781
768.632,43612
768.684,44061
768.735,44305
768.786,44579
768.837,45161
768.888,45033
768.94,44412
768.991,44533
769.042,45127
769.093,44678
769.144,44118
769.196,43942
769.247,43381
769.298,43218
769.349,42598
769.4,42393
769.452,42171
769.503,41492
769.554,40710
769.605,40766
769.656,40807
769.707,40094
769.758,39984
769.81,39323
769.861,38877
769.912,38922
769.963,38591
770.014,38246
770.065,37803
770.116,37733
770.167,37414
770.218,37156
770.27,36801
770.321,36259
770.372,36309
770.423,36132
770.474,35537
770.525,35030
770.576,35400
770.627,34699
770.678,34434
770.729,33943
770.78,33765
770.831,33494
770.882,33672
770.933,33286
770.984,32916
771.035,32403
771.086,32186
771.137,31780
771.188,31942
771.239,32014
771.29,31229
771.341,31185
771.392,30924
771.443,31162
771.494,30693
771.545,30461
771.596,30452
771.647,30655
771.698,30843
771.749,30596
771.8,30418
771.851,30527
771.902,30836
771.953,30672
772.004,30542
772.054,30990
772.105,31028
772.156,31346
772.207,31632
772.258,31267
772.309,31720
772.36,31882
772.411,32017
772.462,32193
772.512,32275
772.563,32528
772.614,32694
772.665,33067
772.716,33572
772.767,33401
772.818,33646
772.868,33636
772.919,33553
772.97,33717
773.021,34060
773.072,34344
773.123,34344
773.173,34498
773.224,34533
773.275,34805
773.326,34978
773.377,34995
773.427,34982
773.478,35122
773.529,35044
773.58,35319
773.63,35626
773.681,35829
773.732,36304
773.783,36271
773.833,36572
773.884,36652
773.935,37104
773.986,37773
774.036,37168
774.087,37531
774.138,37414
774.188,37824
774.239,37700
774.29,37999
774.341,38584
774.391,38613
774.442,38462
774.493,38702
774.543,38921
774.594,39409
774.645,39597
774.695,39428
774.746,39405
774.797,39709
774.847,40156
774.898,40050
774.949,39909
774.999,40339
775.05,40881
775.1,41281
775.151,40772
775.202,41487
775.252,41845
775.303,41851
775.353,41785
775.404,42207
775.455,42095
775.505,41963
775.556,41849
775.606,42888
775.657,42887
775.707,43332
775.758,43315
775.809,43707
775.859,44051
775.91,44354
775.96,43692
776.011,43834
776.061,43768
776.112,44076
776.162,44558
776.213,45041
776.263,45231
776.314,45323
776.364,45296
776.415,45110
776.465,45051
776.516,44483
776.566,44443
776.617,44769
776.667,44210
776.718,44038
776.768,44648
776.819,44511
776.869,44678
776.919,45423
776.97,45279
777.02,44515
777.071,44498
777.121,44970
777.172,44654
777.222,44287
777.272,44436
777.323,44543
777.373,44998
777.424,45594
777.474,45090
777.524,45692
777.575,45365
777.625,45044
777.675,46069
777.726,46211
777.776,46231
777.826,46117
777.877,46618
777.927,46438
777.977,47091
778.028,46785
778.078,46253
778.128,46031
778.179,46631
778.229,46132
778.279,45746