File: Physics/PHYS 331 - Advanced Laboratory/PHYS 331 Experiments/PHYS 331 Raman Spectroscopy/PHYS 331 RS TiO2 Data/PHYS 331 RS TI02 Antistokes (3 Sec) Run 2.csv
724.376,3807
724.431,3877
724.485,3862
724.54,3869
724.595,3887
724.65,3891
724.705,3888
724.76,3898
724.815,3867
724.87,3928
724.924,3936
724.979,3963
725.034,3931
725.089,3920
725.144,3975
725.199,3913
725.253,3949
725.308,4024
725.363,3939
725.418,3962
725.473,3903
725.527,3991
725.582,4016
725.637,3942
725.692,4008
725.747,3996
725.801,4013
725.856,4004
725.911,3989
725.966,4036
726.02,4012
726.075,4037
726.13,4023
726.185,4011
726.24,4042
726.294,4101
726.349,4028
726.404,4067
726.458,4058
726.513,4025
726.568,4077
726.623,4001
726.677,4026
726.732,4068
726.787,4059
726.842,4054
726.896,3990
726.951,4078
727.006,4067
727.06,4084
727.115,4046
727.17,4075
727.224,4086
727.279,4046
727.334,4047
727.388,4118
727.443,4035
727.498,4089
727.552,4020
727.607,3992
727.662,4014
727.716,4093
727.771,4082
727.826,4045
727.88,4137
727.935,4122
727.99,4070
728.044,4026
728.099,4054
728.153,4129
728.208,4080
728.263,4072
728.317,4073
728.372,4115
728.426,4135
728.481,4098
728.536,4102
728.59,4060
728.645,4036
728.699,4112
728.754,4098
728.809,4094
728.863,4079
728.918,4096
728.972,4066
729.027,4137
729.081,4173
729.136,4156
729.19,4127
729.245,4101
729.299,4087
729.354,4120
729.408,4164
729.463,4155
729.518,4146
729.572,4132
729.627,4152
729.681,4145
729.736,4161
729.79,4163
729.845,4213
729.899,4168
729.954,4170
730.008,4126
730.062,4129
730.117,4220
730.171,4184
730.226,4234
730.28,4177
730.335,4224
730.389,4200
730.444,4203
730.498,4166
730.553,4214
730.607,4131
730.661,4252
730.716,4212
730.77,4168
730.825,4251
730.879,4268
730.934,4234
730.988,4213
731.042,4222
731.097,4236
731.151,4250
731.206,4226
731.26,4285
731.314,4232
731.369,4227
731.423,4235
731.477,4250
731.532,4282
731.586,4296
731.641,4302
731.695,4269
731.749,4247
731.804,4261
731.858,4286
731.912,4300
731.967,4307
732.021,4291
732.075,4257
732.13,4331
732.184,4345
732.238,4317
732.293,4338
732.347,4318
732.401,4325
732.455,4330
732.51,4357
732.564,4342
732.618,4300
732.673,4392
732.727,4448
732.781,4384
732.835,4385
732.89,4316
732.944,4390
732.998,4332
733.052,4336
733.107,4356
733.161,4343
733.215,4420
733.269,4398
733.324,4369
733.378,4421
733.432,4514
733.486,4400
733.541,4385
733.595,4421
733.649,4371
733.703,4366
733.757,4411
733.812,4477
733.866,4452
733.92,4489
733.974,4468
734.028,4458
734.083,4430
734.137,4478
734.191,4516
734.245,4506
734.299,4527
734.353,4556
734.408,4567
734.462,4566
734.516,4559
734.57,4589
734.624,4526
734.678,4585
734.732,4597
734.786,4533
734.841,4569
734.895,4593
734.949,4538
735.003,4593
735.057,4583
735.111,4639
735.165,4647
735.219,4689
735.273,4624
735.327,4654
735.382,4611
735.436,4675
735.49,4651
735.544,4661
735.598,4717
735.652,4770
735.706,4719
735.76,4701
735.814,4784
735.868,4757
735.922,4724
735.976,4728
736.03,4813
736.084,4674
736.138,4767
736.192,4782
736.246,4765
736.3,4699
736.354,4754
736.408,4712
736.462,4750
736.516,4744
736.57,4751
736.624,4841
736.678,4798
736.732,4885
736.786,4807
736.84,4912
736.894,4842
736.948,4841
737.002,4819
737.056,4854
737.11,4872
737.164,4894
737.218,4886
737.272,4967
737.326,4939
737.38,4944
737.433,4946
737.487,4971
737.541,4969
737.595,5015
737.649,4978
737.703,5004
737.757,4990
737.811,5036
737.865,5072
737.919,4973
737.972,4947
738.026,5028
738.08,5061
738.134,5069
738.188,5049
738.242,5058
738.296,5100
738.349,5105
738.403,5099
738.457,5072
738.511,5111
738.565,5103
738.619,5111
738.672,5082
738.726,5087
738.78,5135
738.834,5074
738.888,5171
738.941,5101
738.995,5240
739.049,5198
739.103,5209
739.157,5227
739.21,5172
739.264,5181
739.318,5209
739.372,5281
739.426,5188
739.479,5219
739.533,5318
739.587,5253
739.641,5248
739.694,5324
739.748,5318
739.802,5329
739.855,5359
739.909,5290
739.963,5347
740.017,5401
740.07,5408
740.124,5408
740.178,5396
740.231,5399
740.285,5422
740.339,5478
740.393,5431
740.446,5492
740.5,5572
740.554,5410
740.607,5464
740.661,5531
740.715,5566
740.768,5557
740.822,5553
740.876,5565
740.929,5514
740.983,5597
741.037,5581
741.09,5717
741.144,5736
741.197,5651
741.251,5656
741.305,5661
741.358,5662
741.412,5764
741.465,5774
741.519,5803
741.573,5770
741.626,5878
741.68,5914
741.733,5924
741.787,5916
741.841,5912
741.894,5975
741.948,5976
742.001,5972
742.055,6018
742.108,6032
742.162,5972
742.215,6032
742.269,6083
742.323,6078
742.376,6086
742.43,6136
742.483,6085
742.537,6119
742.59,6230
742.644,6262
742.697,6206
742.751,6274
742.804,6328
742.858,6349
742.911,6375
742.965,6262
743.018,6288
743.072,6382
743.125,6344
743.179,6342
743.232,6429
743.285,6434
743.339,6472
743.392,6448
743.446,6482
743.499,6541
743.553,6658
743.606,6662
743.66,6631
743.713,6651
743.766,6766
743.82,6663
743.873,6751
743.927,6787
743.98,6763
744.033,6822
744.087,6883
744.14,6859
744.194,6838
744.247,6886
744.3,6917
744.354,6936
744.407,6929
744.46,7016
744.514,6923
744.567,7070
744.62,7036
744.674,7063
744.727,7123
744.781,7058
744.834,7061
744.887,7157
744.941,7159
744.994,7191
745.047,7150
745.1,7308
745.154,7268
745.207,7260
745.26,7334
745.314,7428
745.367,7454
745.42,7551
745.474,7573
745.527,7596
745.58,7730
745.633,7770
745.687,7815
745.74,7962
745.793,7979
745.846,7939
745.9,7996
745.953,8026
746.006,8101
746.059,8162
746.113,8219
746.166,8235
746.219,8237
746.272,8353
746.325,8374
746.379,8444
746.432,8380
746.485,8429
746.538,8607
746.591,8561
746.645,8664
746.698,8742
746.751,8760
746.804,8772
746.857,8822
746.91,9000
746.964,9077
747.017,9148
747.07,9237
747.123,9279
747.176,9384
747.229,9459
747.282,9539
747.336,9559
747.389,9830
747.442,9949
747.495,10010
747.548,10172
747.601,10330
747.654,10395
747.707,10496
747.76,10673
747.814,10774
747.867,10971
747.92,11119
747.973,11248
748.026,11449
748.079,11759
748.132,11828
748.185,12039
748.238,12194
748.291,12299
748.344,12529
748.397,12699
748.45,12929
748.503,13093
748.556,13276
748.609,13331
748.662,13688
748.715,13656
748.768,13877
748.821,13943
748.874,14016
748.927,14120
748.98,14091
749.033,14238
749.086,14323
749.139,14325
749.192,14152
749.245,14304
749.298,14084
749.351,14090
749.404,14138
749.457,13955
749.51,13922
749.563,13679
749.616,13710
749.669,13548
749.722,13415
749.775,13246
749.828,13170
749.881,13177
749.933,13009
749.986,12905
750.039,12833
750.092,12837
750.145,12744
750.198,12626
750.251,12636
750.304,12544
750.357,12425
750.409,12415
750.462,12367
750.515,12254
750.568,12162
750.621,12152
750.674,12173
750.727,12158
750.779,12027
750.832,11891
750.885,11779
750.938,11837
750.991,11704
751.044,11670
751.096,11797
751.149,11628
751.202,11641
751.255,11776
751.308,11529
751.36,11558
751.413,11505
751.466,11331
751.519,11394
751.571,11329
751.624,11277
751.677,11256
751.73,11258
751.783,11331
751.835,11334
751.888,11424
751.941,11272
751.993,11296
752.046,11248
752.099,11300
752.152,11231
752.204,11211
752.257,11177
752.31,11199
752.363,11188
752.415,11318
752.468,11342
752.521,11307
752.573,11276
752.626,11380
752.679,11412
752.731,11365
752.784,11388
752.837,11288
752.889,11400
752.942,11492
752.995,11483
753.047,11472
753.1,11459
753.153,11476
753.205,11530
753.258,11546
753.31,11514
753.363,11432
753.416,11591
753.468,11553
753.521,11497
753.573,11678
753.626,11657
753.679,11699
753.731,11691
753.784,11760
753.836,11861
753.889,11716
753.942,11737
753.994,11791
754.047,11835
754.099,11834
754.152,11893
754.204,11976
754.257,12049
754.309,11992
754.362,12139
754.414,12211
754.467,12222
754.52,12300
754.572,12162
754.625,12224
754.677,12348
754.73,12372
754.782,12318
754.835,12406
754.887,12508
754.94,12519
754.992,12582
755.044,12527
755.097,12661
755.149,12665
755.202,12651
755.254,12658
755.307,12677
755.359,12861
755.412,12970
755.464,13127
755.517,13096
755.569,13143
755.621,13159
755.674,13204
755.726,13264
755.779,13448
755.831,13419
755.883,13549
755.936,13610
755.988,13677
756.041,13756
756.093,13990
756.145,14170
756.198,14203
756.25,14348
756.302,14618
756.355,14739
756.407,15032
756.46,15120
756.512,15191
756.564,15593
756.617,15730
756.669,15968
756.721,16268
756.774,16592
756.826,16834
756.878,16989
756.93,17289
756.983,17569
757.035,17857
757.087,18124
757.14,18640
757.192,18787
757.244,19214
757.297,19752
757.349,20268
757.401,20449
757.453,20777
757.506,21254
757.558,21748
757.61,22219
757.662,22551
757.715,22966
757.767,23431
757.819,23679
757.871,24162
757.923,24549
757.976,24790
758.028,24941
758.08,25028
758.132,25288
758.185,25360
758.237,25481
758.289,25344
758.341,25265
758.393,25267
758.445,25179
758.498,24949
758.55,25036
758.602,24718
758.654,24519
758.706,24492
758.758,24230
758.811,24288
758.863,24039
758.915,23780
758.967,23549
759.019,23357
759.071,22998
759.123,23006
759.175,22725
759.228,22621
759.28,22390
759.332,22140
759.384,21880
759.436,21734
759.488,21455
759.54,21508
759.592,21232
759.644,20871
759.696,20981
759.748,20728
759.8,20661
759.852,20386
759.904,20173
759.957,20174
760.009,20377
760.061,20371
760.113,20191
760.165,20029
760.217,19936
760.269,19816
760.321,19620
760.373,19678
760.425,19656
760.477,19505
760.529,19500
760.581,19488
760.633,19492
760.685,19531
760.737,19435
760.789,19554
760.841,19586
760.892,19403
760.944,19292
760.996,19173
761.048,19164
761.1,19377
761.152,19482
761.204,19417
761.256,19312
761.308,19368
761.36,19398
761.412,19691
761.464,19804
761.516,19872
761.567,19810
761.619,19646
761.671,19707
761.723,19924
761.775,19761
761.827,19616
761.879,19652
761.931,19859
761.982,20016
762.034,19953
762.086,20036
762.138,20011
762.19,20215
762.242,20233
762.294,20302
762.345,20318
762.397,20228
762.449,20412
762.501,20308
762.553,20279
762.604,20447
762.656,20472
762.708,20657
762.76,20790
762.812,20909
762.863,20865
762.915,20936
762.967,21186
763.019,21090
763.07,21213
763.122,21378
763.174,21468
763.226,21175
763.277,21474
763.329,21375
763.381,21459
763.433,21374
763.484,21564
763.536,21786
763.588,21842
763.639,21746
763.691,21824
763.743,21833
763.795,22274
763.846,22136
763.898,22287
763.95,22370
764.001,22408
764.053,22494
764.105,22608
764.156,22619
764.208,22726
764.26,22731
764.311,22895
764.363,22858
764.414,22783
764.466,22757
764.518,22749
764.569,22905
764.621,22972
764.673,22988
764.724,23021
764.776,22982
764.827,23045
764.879,22892
764.931,22987
764.982,23230
765.034,23520
765.085,23591
765.137,23535
765.188,23546
765.24,23494
765.292,23693
765.343,24072
765.395,23957
765.446,23875
765.498,23846
765.549,24144
765.601,24104
765.652,24058
765.704,24266
765.755,24144
765.807,24353
765.858,24339
765.91,24666
765.961,24681
766.013,24646
766.064,24724
766.116,24653
766.167,24712
766.219,24574
766.27,24629
766.322,24365
766.373,24387
766.425,24337
766.476,24135
766.527,23929
766.579,23756
766.63,23805
766.682,23580
766.733,23677
766.785,23579
766.836,23771
766.887,24143
766.939,24382
766.99,24685
767.042,24955
767.093,25395
767.144,25852
767.196,26359
767.247,27051
767.298,27799
767.35,28245
767.401,29139
767.453,29782
767.504,30396
767.555,31028
767.607,31770
767.658,32738
767.709,33446
767.761,34201
767.812,34436
767.863,34875
767.914,35334
767.966,35344
768.017,36037
768.068,36820
768.12,37520
768.171,37986
768.222,38777
768.274,39982
768.325,40708
768.376,41326
768.427,42118
768.479,42469
768.53,42920
768.581,43075
768.632,43587
768.684,44148
768.735,44315
768.786,44645
768.837,45638
768.888,45004
768.94,44469
768.991,44836
769.042,45152
769.093,44657
769.144,44220
769.196,44020
769.247,43552
769.298,43154
769.349,42627
769.4,42639
769.452,42335
769.503,41639
769.554,40792
769.605,40832
769.656,40685
769.707,40213
769.758,40227
769.81,39361
769.861,38775
769.912,38899
769.963,38525
770.014,38439
770.065,38068
770.116,37921
770.167,37582
770.218,37189
770.27,36763
770.321,36257
770.372,36609
770.423,36357
770.474,35552
770.525,35140
770.576,35405
770.627,34799
770.678,34455
770.729,33972
770.78,33767
770.831,33664
770.882,33579
770.933,33385
770.984,33000
771.035,32510
771.086,32074
771.137,31944
771.188,31968
771.239,31978
771.29,31358
771.341,31206
771.392,30971
771.443,31168
771.494,30549
771.545,30628
771.596,30565
771.647,30450
771.698,30782
771.749,30736
771.8,30493
771.851,30662
771.902,30877
771.953,30602
772.004,30538
772.054,30944
772.105,30965
772.156,31555
772.207,31686
772.258,31563
772.309,31759
772.36,32218
772.411,32046
772.462,32309
772.512,32299
772.563,32656
772.614,32832
772.665,33026
772.716,33558
772.767,33515
772.818,33794
772.868,33668
772.919,33631
772.97,33629
773.021,33911
773.072,34426
773.123,34473
773.173,34491
773.224,34698
773.275,34930
773.326,34854
773.377,34973
773.427,35003
773.478,35286
773.529,35114
773.58,35480
773.63,35590
773.681,35937
773.732,36301
773.783,36401
773.833,36606
773.884,36528
773.935,37298
773.986,37562
774.036,37201
774.087,37448
774.138,37508
774.188,37711
774.239,37630
774.29,38125
774.341,38566
774.391,38670
774.442,38519
774.493,38653
774.543,38995
774.594,39326
774.645,39593
774.695,39501
774.746,39625
774.797,39984
774.847,40019
774.898,40011
774.949,40227
774.999,40460
775.05,41049
775.1,41483
775.151,40950
775.202,41414
775.252,42044
775.303,41637
775.353,41816
775.404,42279
775.455,42202
775.505,42161
775.556,41988
775.606,42953
775.657,42854
775.707,43158
775.758,43457
775.809,43749
775.859,44338
775.91,44381
775.96,44005
776.011,44038
776.061,44011
776.112,44290
776.162,44610
776.213,45217
776.263,45314
776.314,45741
776.364,45191
776.415,45267
776.465,45278
776.516,44907
776.566,44493
776.617,44689
776.667,44638
776.718,44155
776.768,44509
776.819,44722
776.869,44976
776.919,45557
776.97,45329
777.02,44586
777.071,44412
777.121,45037
777.172,44707
777.222,44354
777.272,44346
777.323,44589
777.373,44967
777.424,45652
777.474,45285
777.524,45835
777.575,45363
777.625,45156
777.675,46034
777.726,46261
777.776,46258
777.826,46080
777.877,46620
777.927,46450
777.977,47272
778.028,46638
778.078,46506
778.128,46144
778.179,46758
778.229,46291
778.279,45648