File: Physics/PHYS 331 - Advanced Laboratory/PHYS 331 Experiments/PHYS 331 Raman Spectroscopy/PHYS 331 RS TiO2 Data/PHYS 331 RS TI02 Stokes (4 Sec) Run 2.csv
794.899,4915
794.951,5100
795.004,5280
795.056,5423
795.109,5576
795.161,5737
795.213,6003
795.266,6241
795.318,6507
795.371,6982
795.423,7467
795.476,7973
795.528,8567
795.581,9301
795.633,9986
795.686,10742
795.738,11520
795.79,12361
795.843,13093
795.895,13961
795.948,14692
796,15432
796.053,16286
796.105,16923
796.157,17601
796.21,18441
796.262,19030
796.315,19686
796.367,20296
796.419,20877
796.472,21363
796.524,21798
796.576,22206
796.629,22658
796.681,22951
796.734,23359
796.786,23687
796.838,23997
796.891,24130
796.943,24551
796.995,24836
797.048,25053
797.1,25266
797.152,25532
797.205,25781
797.257,25961
797.309,26278
797.362,26501
797.414,26770
797.466,26976
797.518,27180
797.571,27435
797.623,27775
797.675,27862
797.728,28123
797.78,28411
797.832,28579
797.884,28882
797.937,28947
797.989,29033
798.041,29251
798.093,29221
798.146,29599
798.198,29856
798.25,29877
798.302,30305
798.355,30550
798.407,30478
798.459,30703
798.511,30716
798.563,31027
798.616,31168
798.668,31249
798.72,31322
798.772,31538
798.824,31742
798.877,31842
798.929,31872
798.981,32031
799.033,32222
799.085,32075
799.137,32282
799.19,32462
799.242,32397
799.294,32393
799.346,32552
799.398,32534
799.45,32508
799.503,32481
799.555,32693
799.607,32571
799.659,32708
799.711,32572
799.763,32451
799.815,32442
799.867,32492
799.919,32304
799.972,32446
800.024,32095
800.076,32032
800.128,31912
800.18,31743
800.232,31514
800.284,31430
800.336,31309
800.388,31196
800.44,30933
800.492,30699
800.544,30516
800.596,30345
800.648,30098
800.7,30096
800.753,29833
800.805,29716
800.857,29540
800.909,29392
800.961,29296
801.013,28986
801.065,28832
801.117,28594
801.169,28490
801.221,28368
801.273,28196
801.325,28018
801.377,27962
801.429,27864
801.481,27798
801.533,27790
801.584,27580
801.636,27579
801.688,27436
801.74,27314
801.792,27066
801.844,27288
801.896,26960
801.948,26874
802,26763
802.052,26627
802.104,26613
802.156,26409
802.208,26423
802.26,26094
802.312,25972
802.363,25882
802.415,25816
802.467,25713
802.519,25448
802.571,25418
802.623,25319
802.675,25126
802.727,24909
802.779,24991
802.83,24703
802.882,24703
802.934,24472
802.986,24186
803.038,24241
803.09,24060
803.141,23924
803.193,23952
803.245,23627
803.297,23698
803.349,23397
803.401,23396
803.452,23360
803.504,23169
803.556,23194
803.608,22976
803.66,23068
803.711,23055
803.763,22960
803.815,22859
803.867,22912
803.919,22835
803.97,22812
804.022,22906
804.074,22873
804.126,22955
804.177,22933
804.229,22978
804.281,22829
804.333,22926
804.384,22985
804.436,23017
804.488,23158
804.539,23125
804.591,23219
804.643,23291
804.695,23344
804.746,23424
804.798,23502
804.85,23532
804.901,23531
804.953,23590
805.005,23678
805.056,23717
805.108,23686
805.16,23608
805.211,23705
805.263,23729
805.315,23700
805.366,23788
805.418,23842
805.47,23804
805.521,23838
805.573,23849
805.625,23849
805.676,23818
805.728,23906
805.779,23921
805.831,23861
805.883,23887
805.934,24033
805.986,23942
806.037,23839
806.089,23911
806.141,23860
806.192,24057
806.244,24119
806.295,24154
806.347,24211
806.399,24179
806.45,24097
806.502,24197
806.553,24199
806.605,24398
806.656,24431
806.708,24492
806.759,24505
806.811,24593
806.862,24673
806.914,24615
806.965,24750
807.017,24824
807.068,24925
807.12,25034
807.171,25077
807.223,24997
807.274,25076
807.326,25087
807.377,25117
807.429,25015
807.48,25212
807.532,25124
807.583,25139
807.635,25192
807.686,25327
807.738,25124
807.789,25315
807.841,25201
807.892,25268
807.943,25347
807.995,25375
808.046,25398
808.098,25266
808.149,25381
808.201,25339
808.252,25390
808.303,25375
808.355,25408
808.406,25320
808.457,25407
808.509,25518
808.56,25432
808.612,25609
808.663,25382
808.714,25468
808.766,25538
808.817,25580
808.868,25509
808.92,25555
808.971,25606
809.022,25585
809.074,25581
809.125,25713
809.176,25692
809.228,25825
809.279,25939
809.33,25982
809.382,25971
809.433,25985
809.484,26127
809.536,26256
809.587,26330
809.638,26381
809.689,26550
809.741,26672
809.792,26680
809.843,26823
809.895,27028
809.946,27286
809.997,27386
810.048,27538
810.1,27586
810.151,27778
810.202,28010
810.253,28228
810.305,28420
810.356,28859
810.407,28959
810.458,29233
810.509,29525
810.561,29778
810.612,30119
810.663,30295
810.714,30700
810.765,31007
810.817,31533
810.868,31949
810.919,32297
810.97,32721
811.021,33242
811.072,33677
811.124,34026
811.175,34604
811.226,35055
811.277,35687
811.328,36338
811.379,36853
811.43,37558
811.482,38195
811.533,38779
811.584,39442
811.635,40146
811.686,40869
811.737,41826
811.788,42440
811.839,43130
811.89,44090
811.941,44932
811.993,45678
812.044,46636
812.095,47532
812.146,48294
812.197,49223
812.248,50514
812.299,50993
812.35,52134
812.401,52890
812.452,53943
812.503,54786
812.554,55882
812.605,56754
812.656,57766
812.707,58429
812.758,59684
812.809,60485
812.86,61421
812.911,62177
812.962,63058
813.013,63492
813.064,64287
813.115,64705
813.166,65070
813.217,65422
813.268,65535
813.319,65535
813.37,65535
813.421,65535
813.472,65504
813.523,65388
813.574,64800
813.625,64076
813.676,63158
813.727,62522
813.778,61596
813.828,60576
813.879,59683
813.93,58431
813.981,56864
814.032,55775
814.083,54407
814.134,53041
814.185,51606
814.236,50454
814.286,49074
814.337,47704
814.388,46213
814.439,45018
814.49,43628
814.541,42397
814.592,41250
814.642,40084
814.693,39133
814.744,38087
814.795,37092
814.846,36016
814.897,35152
814.947,34520
814.998,33469
815.049,32609
815.1,32013
815.151,31301
815.201,30634
815.252,30184
815.303,29648
815.354,29183
815.405,28595
815.455,28223
815.506,27553
815.557,27185
815.608,26784
815.658,26414
815.709,26064
815.76,25795
815.811,25210
815.861,24968
815.912,24832
815.963,24522
816.014,24202
816.064,24057
816.115,23855
816.166,23566
816.216,23398
816.267,23283
816.318,23169
816.368,23057
816.419,22800
816.47,22577
816.521,22497
816.571,22325
816.622,22294
816.673,22138
816.723,21920
816.774,21992
816.824,21856
816.875,21864
816.926,21759
816.976,21720
817.027,21663
817.078,21588
817.128,21500
817.179,21500
817.229,21337
817.28,21450
817.331,21329
817.381,21464
817.432,21374
817.482,21372
817.533,21279
817.584,21325
817.634,21230
817.685,21264
817.735,21322
817.786,21166
817.836,21264
817.887,21204
817.938,21204
817.988,21261
818.039,21274
818.089,21242
818.14,21282
818.19,21371
818.241,21194
818.291,21307
818.342,21266
818.392,21134
818.443,21221
818.493,21184
818.544,21294
818.594,21231
818.645,21262
818.695,21330
818.746,21357
818.796,21223
818.847,21339
818.897,21194
818.947,21317
818.998,21274
819.048,21399
819.099,21400
819.149,21445
819.2,21435
819.25,21448
819.301,21346
819.351,21451
819.401,21457
819.452,21499
819.502,21614
819.553,21527
819.603,21697
819.653,21692
819.704,21660
819.754,21732
819.804,21874
819.855,21940
819.905,22009
819.956,22031
820.006,22179
820.056,22150
820.107,22122
820.157,22232
820.207,22293
820.258,22384
820.308,22621
820.358,22518
820.409,22682
820.459,22915
820.509,22861
820.56,23038
820.61,23263
820.66,23169
820.71,23429
820.761,23605
820.811,23774
820.861,23845
820.912,24103
820.962,24243
821.012,24443
821.062,24591
821.113,24770
821.163,24882
821.213,25184
821.263,25465
821.314,25712
821.364,25848
821.414,25984
821.464,26304
821.514,26508
821.565,26816
821.615,27203
821.665,27393
821.715,27807
821.765,28007
821.816,28405
821.866,28679
821.916,29052
821.966,29281
822.016,29708
822.066,30262
822.117,30629
822.167,31132
822.217,31378
822.267,31698
822.317,32294
822.367,32744
822.417,33266
822.468,33706
822.518,34072
822.568,34715
822.618,35147
822.668,35718
822.718,36293
822.768,36807
822.818,37353
822.868,37873
822.918,38576
822.969,39188
823.019,39817
823.069,40471
823.119,41331
823.169,41948
823.219,42554
823.269,43236
823.319,44015
823.369,44794
823.419,45509
823.469,46244
823.519,46826
823.569,47626
823.619,48370
823.669,49052
823.719,49385
823.769,50263
823.819,50748
823.869,51309
823.919,51730
823.969,52486
824.019,52635
824.069,52919
824.119,52933
824.169,53042
824.219,53427
824.269,53057
824.319,53157
824.369,53005
824.419,52658
824.469,52360
824.519,52181
824.569,51508
824.618,51079
824.668,50304
824.718,49818
824.768,49039
824.818,48199
824.868,47488
824.918,46615
824.968,45618
825.018,44972
825.068,44045
825.117,43027
825.167,42454
825.217,41332
825.267,40391
825.317,39559
825.367,38730
825.417,38014
825.466,37072
825.516,36558
825.566,35587
825.616,34987
825.666,34388
825.715,33441
825.765,33039
825.815,32118
825.865,31682
825.915,31037
825.964,30585
826.014,29974
826.064,29602
826.114,29068
826.164,28671
826.213,28215
826.263,27740
826.313,27197
826.363,26993
826.412,26630
826.462,26448
826.512,26034
826.562,25703
826.611,25484
826.661,25015
826.711,24682
826.76,24499
826.81,24246
826.86,24022
826.91,23826
826.959,23531
827.009,23324
827.059,23181
827.108,22964
827.158,22844
827.208,22605
827.257,22427
827.307,22343
827.357,22109
827.406,22106
827.456,21963
827.506,21723
827.555,21542
827.605,21489
827.655,21272
827.704,21200
827.754,21141
827.803,20910
827.853,20671
827.903,20690
827.952,20660
828.002,20463
828.051,20370
828.101,20336
828.151,20268
828.2,20063
828.25,20066
828.299,19894
828.349,19843
828.398,19677
828.448,19750
828.497,19665
828.547,19467
828.596,19509
828.646,19465
828.696,19313
828.745,19211
828.795,19184
828.844,19132
828.894,19045
828.943,18997
828.993,18872
829.042,18747
829.092,18808
829.141,18725
829.191,18730
829.24,18613
829.289,18573
829.339,18389
829.388,18357
829.438,18268
829.487,18364
829.537,18221
829.586,18191
829.636,18166
829.685,18202
829.734,17972
829.784,18023
829.833,17983
829.883,17997
829.932,17692
829.981,17847
830.031,17719
830.08,17733
830.13,17627
830.179,17581
830.228,17602
830.278,17490
830.327,17501
830.377,17337
830.426,17350
830.475,17256
830.525,17145
830.574,17226
830.623,17142
830.673,17189
830.722,17019
830.771,16952
830.821,16928
830.87,16815
830.919,16878
830.968,16802
831.018,16750
831.067,16727
831.116,16625
831.166,16607
831.215,16462
831.264,16352
831.313,16551
831.363,16420
831.412,16322
831.461,16287
831.51,16144
831.56,16212
831.609,16000
831.658,16101
831.707,15967
831.757,15939
831.806,15954
831.855,15719
831.904,15815
831.953,15717
832.003,15736
832.052,15592
832.101,15497
832.15,15383
832.199,15407
832.249,15325
832.298,15316
832.347,15290
832.396,15163
832.445,15239
832.494,15092
832.543,15116
832.593,14975
832.642,15033
832.691,14893
832.74,14813
832.789,14801
832.838,14734
832.887,14719
832.936,14733
832.986,14749
833.035,14555
833.084,14476
833.133,14509
833.182,14504
833.231,14444
833.28,14413
833.329,14324
833.378,14257
833.427,14339
833.476,14283
833.525,14242
833.574,14204
833.623,14247
833.672,14113
833.721,14064
833.77,14096
833.819,14035
833.868,14152
833.917,14009
833.966,13966
834.015,13917
834.064,13828
834.113,13790
834.162,13820
834.211,13782
834.26,13699
834.309,13780
834.358,13689
834.407,13729
834.456,13595
834.505,13626
834.554,13750
834.603,13602
834.652,13617
834.701,13479
834.75,13515
834.799,13556
834.848,13550
834.897,13534
834.945,13532
834.994,13513
835.043,13409
835.092,13505
835.141,13455
835.19,13446
835.239,13411
835.288,13332
835.336,13371
835.385,13366
835.434,13396
835.483,13273
835.532,13230
835.581,13274
835.629,13214
835.678,13378
835.727,13237
835.776,13120
835.825,13178
835.874,13305
835.922,13224
835.971,13221
836.02,13220
836.069,13208
836.117,13193
836.166,13129
836.215,13102
836.264,13055
836.313,13166
836.361,13072
836.41,13075
836.459,13124
836.508,13015
836.556,13089
836.605,13110
836.654,12970
836.702,12987
836.751,13002
836.8,13011
836.849,12991
836.897,13012
836.946,12970
836.995,12825
837.043,12958
837.092,12960
837.141,12808
837.189,12976
837.238,12893
837.287,12831
837.335,12922
837.384,12921
837.433,12882
837.481,12771
837.53,12716
837.579,12784
837.627,12778
837.676,12804
837.724,12701
837.773,12808
837.822,12687
837.87,12779
837.919,12682
837.967,12711
838.016,12600
838.065,12727
838.113,12646
838.162,12629
838.21,12578
838.259,12714
838.307,12671
838.356,12618
838.404,12696
838.453,12534
838.502,12582
838.55,12658
838.599,12599
838.647,12642
838.696,12650
838.744,12557
838.793,12605
838.841,12617
838.89,12607
838.938,12551
838.987,12631
839.035,12588
839.084,12522
839.132,12540
839.18,12527
839.229,12541
839.277,12560
839.326,12521
839.374,12506
839.423,12497
839.471,12487
839.52,12542
839.568,12466
839.616,12440
839.665,12489
839.713,12505
839.762,12482
839.81,12447
839.858,12458
839.907,12481
839.955,12563
840.004,12428
840.052,12423
840.1,12421
840.149,12372
840.197,12394
840.245,12375
840.294,12396
840.342,12350
840.39,12324
840.439,12332
840.487,12249
840.535,12295
840.584,12236
840.632,12274
840.68,12355
840.729,12271
840.777,12253
840.825,12233
840.873,12261
840.922,12240
840.97,12229
841.018,12222
841.067,12198
841.115,12144
841.163,12294
841.211,12232
841.26,12163
841.308,12164
841.356,12164
841.404,12082
841.452,12068
841.501,12060
841.549,12088
841.597,12054
841.645,12068
841.694,12085
841.742,12054
841.79,12000
841.838,12045
841.886,12068
841.934,11974
841.983,11973
842.031,11937
842.079,11927
842.127,11984
842.175,11888
842.223,11947
842.271,11946
842.32,11905
842.368,11896
842.416,11916
842.464,11907
842.512,11873
842.56,11947
842.608,11852
842.656,11985
842.704,11928
842.753,11864
842.801,11913
842.849,12016
842.897,11837
842.945,11909
842.993,11897
843.041,11858
843.089,11793
843.137,11842
843.185,11842
843.233,11794
843.281,11795
843.329,11767
843.377,11805
843.425,11834
843.473,11908
843.521,11856
843.569,11852
843.617,11820
843.665,11830
843.713,11768
843.761,11909
843.809,11821
843.857,11751
843.905,11754
843.953,11722
844.001,11770
844.049,11885
844.097,11817
844.145,11827
844.193,11825
844.241,11841
844.289,11706
844.336,11789
844.384,11763
844.432,11778
844.48,11762
844.528,11735
844.576,11730
844.624,11802
844.672,11752
844.72,11687
844.767,11705
844.815,11803
844.863,11717
844.911,11727
844.959,11722
845.007,11653
845.055,11684
845.102,11738
845.15,11695
845.198,11708
845.246,11655
845.294,11686
845.341,11696
845.389,11673
845.437,11700
845.485,11679
845.533,11693
845.58,11644
845.628,11623
845.676,11626
845.724,11624
845.771,11622
845.819,11549
845.867,11625
845.915,11688
845.962,11640
846.01,11629
846.058,11560
846.106,11580
846.153,11560
846.201,11564
846.249,11611