File: Physics/PHYS 331 - Advanced Laboratory/PHYS 331 Experiments/PHYS 331 Raman Spectroscopy/PHYS 331 RS TiO2 Data/PHYS 331 RS TI02 Antistokes (2 Sec) Run 2.csv
724.376,2772
724.431,2838
724.485,2814
724.54,2832
724.595,2836
724.65,2854
724.705,2848
724.76,2818
724.815,2863
724.87,2893
724.924,2841
724.979,2894
725.034,2836
725.089,2882
725.144,2875
725.199,2919
725.253,2850
725.308,2872
725.363,2844
725.418,2863
725.473,2852
725.527,2865
725.582,2910
725.637,2892
725.692,2844
725.747,2902
725.801,2911
725.856,2890
725.911,2928
725.966,2934
726.02,2903
726.075,2893
726.13,2941
726.185,2980
726.24,2912
726.294,2896
726.349,2925
726.404,2923
726.458,2904
726.513,2921
726.568,2912
726.623,2917
726.677,2924
726.732,2915
726.787,2980
726.842,2966
726.896,2936
726.951,2915
727.006,2936
727.06,2923
727.115,2950
727.17,2932
727.224,2954
727.279,2978
727.334,2941
727.388,2937
727.443,2954
727.498,2991
727.552,2953
727.607,2962
727.662,2913
727.716,2927
727.771,2964
727.826,2951
727.88,2979
727.935,2968
727.99,2960
728.044,2965
728.099,2989
728.153,2967
728.208,2995
728.263,2971
728.317,2983
728.372,2966
728.426,2949
728.481,2968
728.536,2928
728.59,2928
728.645,2952
728.699,2972
728.754,2932
728.809,2950
728.863,2993
728.918,2948
728.972,2964
729.027,2960
729.081,2969
729.136,3001
729.19,3019
729.245,2972
729.299,2950
729.354,3002
729.408,2984
729.463,2986
729.518,3002
729.572,3006
729.627,3005
729.681,3003
729.736,2987
729.79,3041
729.845,3064
729.899,3033
729.954,3029
730.008,2970
730.062,2997
730.117,2998
730.171,3020
730.226,3043
730.28,3045
730.335,3041
730.389,3060
730.444,3042
730.498,3012
730.553,3065
730.607,3045
730.661,3034
730.716,3081
730.77,3050
730.825,3048
730.879,3022
730.934,3053
730.988,3088
731.042,3068
731.097,3030
731.151,3110
731.206,3074
731.26,3066
731.314,3049
731.369,3068
731.423,3063
731.477,3064
731.532,3108
731.586,3050
731.641,3064
731.695,3075
731.749,3090
731.804,3111
731.858,3104
731.912,3071
731.967,3092
732.021,3088
732.075,3108
732.13,3132
732.184,3099
732.238,3104
732.293,3165
732.347,3181
732.401,3121
732.455,3118
732.51,3151
732.564,3144
732.618,3116
732.673,3187
732.727,3155
732.781,3186
732.835,3143
732.89,3146
732.944,3158
732.998,3161
733.052,3155
733.107,3126
733.161,3168
733.215,3179
733.269,3195
733.324,3153
733.378,3164
733.432,3200
733.486,3198
733.541,3196
733.595,3206
733.649,3182
733.703,3215
733.757,3202
733.812,3201
733.866,3248
733.92,3190
733.974,3239
734.028,3199
734.083,3198
734.137,3227
734.191,3273
734.245,3241
734.299,3248
734.353,3299
734.408,3255
734.462,3246
734.516,3322
734.57,3267
734.624,3293
734.678,3318
734.732,3308
734.786,3248
734.841,3308
734.895,3283
734.949,3296
735.003,3335
735.057,3306
735.111,3310
735.165,3369
735.219,3314
735.273,3343
735.327,3342
735.382,3294
735.436,3260
735.49,3315
735.544,3356
735.598,3344
735.652,3400
735.706,3377
735.76,3366
735.814,3375
735.868,3385
735.922,3393
735.976,3338
736.03,3390
736.084,3346
736.138,3347
736.192,3439
736.246,3430
736.3,3437
736.354,3399
736.408,3419
736.462,3430
736.516,3438
736.57,3449
736.624,3453
736.678,3501
736.732,3489
736.786,3490
736.84,3489
736.894,3466
736.948,3464
737.002,3470
737.056,3472
737.11,3519
737.164,3534
737.218,3519
737.272,3532
737.326,3538
737.38,3510
737.433,3486
737.487,3475
737.541,3515
737.595,3507
737.649,3559
737.703,3538
737.757,3490
737.811,3594
737.865,3608
737.919,3588
737.972,3581
738.026,3596
738.08,3616
738.134,3557
738.188,3586
738.242,3597
738.296,3621
738.349,3623
738.403,3655
738.457,3636
738.511,3662
738.565,3632
738.619,3616
738.672,3627
738.726,3647
738.78,3722
738.834,3667
738.888,3672
738.941,3712
738.995,3702
739.049,3718
739.103,3741
739.157,3750
739.21,3698
739.264,3694
739.318,3712
739.372,3718
739.426,3756
739.479,3710
739.533,3787
739.587,3733
739.641,3718
739.694,3714
739.748,3785
739.802,3767
739.855,3755
739.909,3799
739.963,3790
740.017,3833
740.07,3870
740.124,3827
740.178,3750
740.231,3844
740.285,3896
740.339,3837
740.393,3904
740.446,3928
740.5,3919
740.554,3917
740.607,3925
740.661,3916
740.715,3912
740.768,3966
740.822,3923
740.876,3949
740.929,3970
740.983,3921
741.037,3983
741.09,3981
741.144,4039
741.197,3988
741.251,3967
741.305,4066
741.358,4045
741.412,4060
741.465,4096
741.519,4126
741.573,4152
741.626,4147
741.68,4189
741.733,4209
741.787,4182
741.841,4203
741.894,4228
741.948,4268
742.001,4271
742.055,4295
742.108,4259
742.162,4267
742.215,4295
742.269,4340
742.323,4278
742.376,4315
742.43,4327
742.483,4315
742.537,4329
742.59,4412
742.644,4375
742.697,4356
742.751,4431
742.804,4418
742.858,4450
742.911,4494
742.965,4463
743.018,4437
743.072,4481
743.125,4545
743.179,4504
743.232,4489
743.285,4590
743.339,4568
743.392,4547
743.446,4555
743.499,4554
743.553,4620
743.606,4640
743.66,4699
743.713,4739
743.766,4757
743.82,4773
743.873,4715
743.927,4807
743.98,4814
744.033,4813
744.087,4803
744.14,4787
744.194,4865
744.247,4848
744.3,4912
744.354,4868
744.407,4889
744.46,4929
744.514,4958
744.567,4960
744.62,4952
744.674,4994
744.727,5035
744.781,5026
744.834,5004
744.887,5022
744.941,5015
744.994,5020
745.047,5070
745.1,5134
745.154,5146
745.207,5176
745.26,5206
745.314,5223
745.367,5282
745.42,5242
745.474,5284
745.527,5335
745.58,5374
745.633,5519
745.687,5505
745.74,5551
745.793,5596
745.846,5573
745.9,5647
745.953,5654
746.006,5637
746.059,5711
746.113,5723
746.166,5766
746.219,5760
746.272,5813
746.325,5790
746.379,5877
746.432,5903
746.485,5883
746.538,5958
746.591,6061
746.645,6011
746.698,6051
746.751,6151
746.804,6159
746.857,6233
746.91,6272
746.964,6306
747.017,6366
747.07,6394
747.123,6455
747.176,6559
747.229,6650
747.282,6599
747.336,6646
747.389,6730
747.442,6895
747.495,7048
747.548,7099
747.601,7208
747.654,7191
747.707,7287
747.76,7441
747.814,7472
747.867,7525
747.92,7657
747.973,7847
748.026,7903
748.079,7997
748.132,8199
748.185,8331
748.238,8372
748.291,8558
748.344,8673
748.397,8781
748.45,8942
748.503,9093
748.556,9179
748.609,9348
748.662,9432
748.715,9488
748.768,9522
748.821,9565
748.874,9645
748.927,9738
748.98,9830
749.033,9741
749.086,9748
749.139,9826
749.192,9795
749.245,9692
749.298,9778
749.351,9735
749.404,9758
749.457,9623
749.51,9586
749.563,9534
749.616,9448
749.669,9425
749.722,9232
749.775,9194
749.828,9143
749.881,9104
749.933,9021
749.986,8976
750.039,8915
750.092,8857
750.145,8869
750.198,8840
750.251,8730
750.304,8704
750.357,8573
750.409,8606
750.462,8519
750.515,8494
750.568,8510
750.621,8462
750.674,8479
750.727,8412
750.779,8393
750.832,8333
750.885,8242
750.938,8283
750.991,8209
751.044,8185
751.096,8146
751.149,8145
751.202,8229
751.255,8145
751.308,8146
751.36,8054
751.413,8031
751.466,8015
751.519,7970
751.571,7861
751.624,7881
751.677,7891
751.73,7887
751.783,7921
751.835,7911
751.888,7973
751.941,7897
751.993,7970
752.046,7890
752.099,7862
752.152,7781
752.204,7780
752.257,7719
752.31,7763
752.363,7844
752.415,7854
752.468,7842
752.521,8018
752.573,7967
752.626,7882
752.679,7805
752.731,7882
752.784,7939
752.837,8009
752.889,7981
752.942,7916
752.995,7957
753.047,7956
753.1,8006
753.153,7998
753.205,7991
753.258,8026
753.31,8028
753.363,8017
753.416,8033
753.468,8058
753.521,7982
753.573,8069
753.626,8043
753.679,8127
753.731,8107
753.784,8090
753.836,8191
753.889,8084
753.942,8100
753.994,8175
754.047,8163
754.099,8188
754.152,8147
754.204,8225
754.257,8344
754.309,8273
754.362,8360
754.414,8417
754.467,8423
754.52,8424
754.572,8467
754.625,8485
754.677,8614
754.73,8532
754.782,8501
754.835,8592
754.887,8670
754.94,8626
754.992,8544
755.044,8631
755.097,8672
755.149,8655
755.202,8688
755.254,8722
755.307,8798
755.359,8880
755.412,8848
755.464,9046
755.517,8933
755.569,9013
755.621,9143
755.674,9171
755.726,9155
755.779,9161
755.831,9283
755.883,9344
755.936,9401
755.988,9420
756.041,9493
756.093,9625
756.145,9701
756.198,9785
756.25,10005
756.302,10095
756.355,10178
756.407,10312
756.46,10329
756.512,10385
756.564,10684
756.617,10814
756.669,10938
756.721,11130
756.774,11322
756.826,11454
756.878,11720
756.93,11903
756.983,12060
757.035,12386
757.087,12573
757.14,12758
757.192,12900
757.244,13152
757.297,13573
757.349,13781
757.401,14008
757.453,14333
757.506,14651
757.558,14973
757.61,15196
757.662,15400
757.715,15593
757.767,15929
757.819,16282
757.871,16467
757.923,16580
757.976,16829
758.028,16909
758.08,17081
758.132,17199
758.185,17165
758.237,17254
758.289,17191
758.341,17217
758.393,17144
758.445,17131
758.498,17028
758.55,16915
758.602,16900
758.654,16798
758.706,16689
758.758,16545
758.811,16301
758.863,16313
758.915,16150
758.967,16007
759.019,15948
759.071,15803
759.123,15698
759.175,15580
759.228,15477
759.28,15183
759.332,15000
759.384,14863
759.436,14875
759.488,14564
759.54,14620
759.592,14523
759.644,14310
759.696,14264
759.748,14048
759.8,14056
759.852,13948
759.904,13907
759.957,13824
760.009,13894
760.061,13961
760.113,13908
760.165,13780
760.217,13594
760.269,13580
760.321,13496
760.373,13455
760.425,13430
760.477,13272
760.529,13227
760.581,13392
760.633,13301
760.685,13292
760.737,13352
760.789,13352
760.841,13320
760.892,13306
760.944,13255
760.996,13236
761.048,13170
761.1,13318
761.152,13238
761.204,13282
761.256,13276
761.308,13352
761.36,13372
761.412,13442
761.464,13566
761.516,13686
761.567,13582
761.619,13537
761.671,13439
761.723,13571
761.775,13471
761.827,13328
761.879,13438
761.931,13505
761.982,13686
762.034,13645
762.086,13737
762.138,13766
762.19,13820
762.242,13819
762.294,13869
762.345,14008
762.397,13865
762.449,13733
762.501,13815
762.553,13933
762.604,14134
762.656,14088
762.708,14168
762.76,14303
762.812,14361
762.863,14357
762.915,14226
762.967,14337
763.019,14486
763.07,14606
763.122,14667
763.174,14543
763.226,14525
763.277,14707
763.329,14587
763.381,14634
763.433,14695
763.484,14781
763.536,14909
763.588,15017
763.639,15038
763.691,14980
763.743,15095
763.795,15095
763.846,15160
763.898,15312
763.95,15280
764.001,15209
764.053,15130
764.105,15374
764.156,15376
764.208,15382
764.26,15462
764.311,15487
764.363,15508
764.414,15582
764.466,15573
764.518,15604
764.569,15697
764.621,15656
764.673,15726
764.724,15612
764.776,15628
764.827,15813
764.879,15690
764.931,15781
764.982,15754
765.034,15995
765.085,16038
765.137,16166
765.188,16018
765.24,16237
765.292,16166
765.343,16279
765.395,16120
765.446,16312
765.498,16318
765.549,16380
765.601,16342
765.652,16371
765.704,16640
765.755,16482
765.807,16703
765.858,16653
765.91,16783
765.961,16970
766.013,16863
766.064,16898
766.116,16881
766.167,16802
766.219,16696
766.27,16675
766.322,16703
766.373,16670
766.425,16651
766.476,16318
766.527,16374
766.579,16312
766.63,16220
766.682,16180
766.733,16157
766.785,16029
766.836,16074
766.887,16248
766.939,16527
766.99,16733
767.042,17083
767.093,17260
767.144,17451
767.196,17813
767.247,18359
767.298,18873
767.35,19235
767.401,19750
767.453,20376
767.504,20715
767.555,21100
767.607,21718
767.658,22332
767.709,22725
767.761,23060
767.812,23453
767.863,23739
767.914,23994
767.966,24013
768.017,24471
768.068,25070
768.12,25480
768.171,25943
768.222,26250
768.274,26964
768.325,27681
768.376,27945
768.427,28306
768.479,28845
768.53,28851
768.581,29228
768.632,29715
768.684,29608
768.735,29900
768.786,30176
768.837,30486
768.888,30440
768.94,30044
768.991,30218
769.042,30426
769.093,30309
769.144,29686
769.196,29678
769.247,29368
769.298,29263
769.349,28972
769.4,28633
769.452,28583
769.503,28346
769.554,27865
769.605,27817
769.656,27309
769.707,27027
769.758,27126
769.81,26922
769.861,26379
769.912,26464
769.963,26230
770.014,26167
770.065,25880
770.116,25697
770.167,25455
770.218,25235
770.27,24918
770.321,24673
770.372,24616
770.423,24678
770.474,24078
770.525,23971
770.576,24016
770.627,23624
770.678,23325
770.729,23166
770.78,22961
770.831,22634
770.882,22737
770.933,22495
770.984,22177
771.035,22121
771.086,21952
771.137,21671
771.188,21482
771.239,21488
771.29,21314
771.341,21211
771.392,21016
771.443,21059
771.494,20834
771.545,20888
771.596,20948
771.647,20841
771.698,20866
771.749,20883
771.8,20632
771.851,20725
771.902,20858
771.953,20741
772.004,20874
772.054,20927
772.105,21078
772.156,21212
772.207,21193
772.258,21238
772.309,21480
772.36,21355
772.411,21434
772.462,21600
772.512,21787
772.563,21881
772.614,21925
772.665,22370
772.716,22605
772.767,22693
772.818,22873
772.868,22726
772.919,22731
772.97,22659
773.021,22820
773.072,23061
773.123,23248
773.173,23044
773.224,23089
773.275,23629
773.326,23468
773.377,23639
773.427,23742
773.478,23850
773.529,23858
773.58,23842
773.63,23998
773.681,24285
773.732,24630
773.783,24643
773.833,25058
773.884,24977
773.935,25217
773.986,25414
774.036,25184
774.087,25060
774.138,25112
774.188,25376
774.239,25412
774.29,25618
774.341,26012
774.391,26016
774.442,26013
774.493,26024
774.543,26555
774.594,26356
774.645,26700
774.695,26389
774.746,26703
774.797,26906
774.847,27146
774.898,27407
774.949,27260
774.999,27261
775.05,27669
775.1,27761
775.151,27638
775.202,27830
775.252,28097
775.303,28183
775.353,28278
775.404,28466
775.455,28314
775.505,28044
775.556,28478
775.606,29003
775.657,29108
775.707,29024
775.758,29164
775.809,29349
775.859,29682
775.91,29881
775.96,29857
776.011,30035
776.061,29747
776.112,29844
776.162,29925
776.213,30442
776.263,30180
776.314,30392
776.364,30344
776.415,30286
776.465,30404
776.516,30128
776.566,30088
776.617,29988
776.667,30164
776.718,30168
776.768,30037
776.819,30162
776.869,30152
776.919,30248
776.97,30281
777.02,29948
777.071,29966
777.121,30435
777.172,30115
777.222,30084
777.272,29834
777.323,30163
777.373,30166
777.424,30449
777.474,30396
777.524,30589
777.575,30757
777.625,30553
777.675,31193
777.726,31273
777.776,31260
777.826,31310
777.877,30834
777.927,31103
777.977,31656
778.028,31318
778.078,31131
778.128,30739
778.179,30927
778.229,31120
778.279,30989