File: Physics/PHYS 331 - Advanced Laboratory/PHYS 331 Experiments/PHYS 331 XRD/PHYS 331 XRD (NaCl) Data/PHYS 331 XRD Data (NaCl).csv
20,73
20.06,80
20.12,77
20.18,87
20.24,76
20.3,85
20.36,88
20.42,79
20.48,75
20.54,69
20.6,89
20.66,92
20.72,71
20.78,92
20.84,74
20.9,68
20.96,78
21.02,79
21.08,68
21.14,73
21.2,89
21.26,56
21.32,73
21.38,71
21.44,68
21.5,72
21.56,74
21.62,64
21.68,76
21.74,80
21.8,68
21.86,70
21.92,68
21.98,66
22.04,65
22.1,56
22.16,73
22.22,67
22.28,74
22.34,51
22.4,68
22.46,66
22.52,72
22.58,60
22.64,71
22.7,76
22.76,71
22.82,78
22.88,67
22.94,78
23,72
23.06,62
23.12,65
23.18,60
23.24,73
23.3,77
23.36,59
23.42,70
23.48,63
23.54,62
23.6,63
23.66,54
23.72,67
23.78,50
23.84,82
23.9,80
23.96,50
24.02,59
24.08,75
24.14,72
24.2,67
24.26,59
24.32,70
24.38,75
24.44,61
24.5,65
24.56,60
24.62,73
24.68,68
24.74,84
24.8,76
24.86,62
24.92,68
24.98,60
25.04,75
25.1,66
25.16,72
25.22,73
25.28,62
25.34,64
25.4,61
25.46,63
25.52,61
25.58,61
25.64,53
25.7,62
25.76,69
25.82,63
25.88,69
25.94,59
26,73
26.06,61
26.12,68
26.18,71
26.24,54
26.3,65
26.36,57
26.42,63
26.48,74
26.54,66
26.6,62
26.66,81
26.72,68
26.78,56
26.84,85
26.9,84
26.96,93
27.02,146
27.08,233
27.14,242
27.2,224
27.26,233
27.32,346
27.38,523
27.44,523
27.5,320
27.56,151
27.62,96
27.68,71
27.74,82
27.8,63
27.86,99
27.92,78
27.98,74
28.04,78
28.1,70
28.16,67
28.22,63
28.28,78
28.34,77
28.4,74
28.46,72
28.52,75
28.58,78
28.64,74
28.7,72
28.76,74
28.82,55
28.88,77
28.94,66
29,69
29.06,66
29.12,66
29.18,56
29.24,52
29.3,58
29.36,82
29.42,59
29.48,71
29.54,51
29.6,71
29.66,82
29.72,53
29.78,75
29.84,64
29.9,66
29.96,72
30.02,70
30.08,84
30.14,74
30.2,90
30.26,87
30.32,84
30.38,108
30.44,101
30.5,146
30.56,102
30.62,97
30.68,114
30.74,131
30.8,138
30.86,214
30.92,686
30.98,1658
31.04,2078
31.1,1919
31.16,1724
31.22,1473
31.28,1354
31.34,1321
31.4,1786
31.46,2318
31.52,2477
31.58,2029
31.64,1528
31.7,1238
31.76,937
31.82,590
31.88,390
31.94,276
32,154
32.06,130
32.12,99
32.18,105
32.24,109
32.3,114
32.36,91
32.42,83
32.48,85
32.54,70
32.6,95
32.66,87
32.72,80
32.78,82
32.84,83
32.9,79
32.96,77
33.02,73
33.08,81
33.14,90
33.2,81
33.26,91
33.32,60
33.38,63
33.44,68
33.5,66
33.56,72
33.62,64
33.68,71
33.74,72
33.8,66
33.86,68
33.92,63
33.98,71
34.04,56
34.1,53
34.16,67
34.22,65
34.28,66
34.34,64
34.4,63
34.46,55
34.52,65
34.58,65
34.64,68
34.7,55
34.76,72
34.82,69
34.88,69
34.94,72
35,50
35.06,64
35.12,52
35.18,64
35.24,62
35.3,59
35.36,61
35.42,73
35.48,43
35.54,57
35.6,57
35.66,55
35.72,50
35.78,58
35.84,67
35.9,52
35.96,47
36.02,48
36.08,59
36.14,61
36.2,40
36.26,58
36.32,44
36.38,51
36.44,35
36.5,51
36.56,46
36.62,67
36.68,35
36.74,44
36.8,59
36.86,48
36.92,46
36.98,45
37.04,45
37.1,49
37.16,52
37.22,60
37.28,49
37.34,43
37.4,52
37.46,49
37.52,49
37.58,57
37.64,44
37.7,54
37.76,52
37.82,45
37.88,40
37.94,45
38,52
38.06,59
38.12,53
38.18,57
38.24,31
38.3,50
38.36,46
38.42,39
38.48,45
38.54,46
38.6,43
38.66,39
38.72,56
38.78,51
38.84,55
38.9,54
38.96,44
39.02,49
39.08,54
39.14,50
39.2,42
39.26,41
39.32,46
39.38,41
39.44,56
39.5,36
39.56,50
39.62,50
39.68,45
39.74,46
39.8,36
39.86,56
39.92,35
39.98,40
40.04,46
40.1,55
40.16,52
40.22,38
40.28,54
40.34,45
40.4,43
40.46,43
40.52,47
40.58,52
40.64,41
40.7,62
40.76,64
40.82,52
40.88,56
40.94,41
41,51
41.06,37
41.12,42
41.18,46
41.24,41
41.3,32
41.36,50
41.42,41
41.48,44
41.54,40
41.6,36
41.66,43
41.72,35
41.78,36
41.84,39
41.9,40
41.96,41
42.02,35
42.08,45
42.14,45
42.2,46
42.26,46
42.32,34
42.38,46
42.44,31
42.5,52
42.56,37
42.62,44
42.68,37
42.74,42
42.8,46
42.86,43
42.92,42
42.98,41
43.04,37
43.1,47
43.16,40
43.22,40
43.28,33
43.34,43
43.4,49
43.46,43
43.52,44
43.58,46
43.64,46
43.7,50
43.76,36
43.82,47
43.88,51
43.94,49
44,55
44.06,54
44.12,48
44.18,58
44.24,45
44.3,45
44.36,55
44.42,41
44.48,55
44.54,60
44.6,45
44.66,67
44.72,72
44.78,69
44.84,97
44.9,119
44.96,266
45.02,414
45.08,467
45.14,607
45.2,770
45.26,980
45.32,1247
45.38,1342
45.44,1338
45.5,1170
45.56,857
45.62,750
45.68,513
45.74,380
45.8,248
45.86,133
45.92,82
45.98,77
46.04,60
46.1,58
46.16,58
46.22,55
46.28,48
46.34,52
46.4,40
46.46,45
46.52,45
46.58,60
46.64,52
46.7,46
46.76,46
46.82,48
46.88,52
46.94,40
47,41
47.06,42
47.12,58
47.18,52
47.24,47
47.3,38
47.36,43
47.42,56
47.48,49
47.54,53
47.6,39
47.66,41
47.72,51
47.78,42
47.84,37
47.9,40
47.96,46
48.02,36
48.08,32
48.14,32
48.2,36
48.26,48
48.32,43
48.38,49
48.44,42
48.5,41
48.56,41
48.62,42
48.68,31
48.74,48
48.8,43
48.86,47
48.92,30
48.98,44
49.04,54
49.1,52
49.16,39
49.22,34
49.28,29
49.34,45
49.4,42
49.46,47
49.52,27
49.58,45
49.64,30
49.7,25
49.76,36
49.82,33
49.88,42
49.94,40
50,43
50.06,40
50.12,48
50.18,39
50.24,38
50.3,38
50.36,43
50.42,33
50.48,37
50.54,52
50.6,51
50.66,38
50.72,37
50.78,37
50.84,35
50.9,43
50.96,47
51.02,38
51.08,30
51.14,30
51.2,37
51.26,39
51.32,43
51.38,47
51.44,32
51.5,37
51.56,33
51.62,34
51.68,32
51.74,32
51.8,28
51.86,40
51.92,37
51.98,36
52.04,38
52.1,40
52.16,30
52.22,38
52.28,39
52.34,46
52.4,34
52.46,36
52.52,33
52.58,42
52.64,33
52.7,36
52.76,28
52.82,36
52.88,41
52.94,51
53,32
53.06,34
53.12,41
53.18,28
53.24,35
53.3,39
53.36,48
53.42,52
53.48,45
53.54,57
53.6,87
53.66,122
53.72,122
53.78,96
53.84,88
53.9,67
53.96,39
54.02,75
54.08,73
54.14,69
54.2,60
54.26,56
54.32,48
54.38,37
54.44,34
54.5,39
54.56,47
54.62,36
54.68,45
54.74,46
54.8,47
54.86,39
54.92,32
54.98,48
55.04,40
55.1,49
55.16,46
55.22,41
55.28,51
55.34,45
55.4,57
55.46,48
55.52,47
55.58,39
55.64,45
55.7,48
55.76,60
55.82,65
55.88,88
55.94,178
56,239
56.06,383
56.12,494
56.18,575
56.24,684
56.3,653
56.36,644
56.42,811
56.48,1027
56.54,849
56.6,677
56.66,519
56.72,317
56.78,161
56.84,95
56.9,80
56.96,50
57.02,48
57.08,54
57.14,47
57.2,53
57.26,53
57.32,53
57.38,36
57.44,39
57.5,45
57.56,38
57.62,55
57.68,41
57.74,37
57.8,37
57.86,38
57.92,46
57.98,41
58.04,46
58.1,51
58.16,39
58.22,39
58.28,40
58.34,45
58.4,40
58.46,41
58.52,38
58.58,49
58.64,35
58.7,47
58.76,41
58.82,48
58.88,41
58.94,53
59,43
59.06,38
59.12,44
59.18,33
59.24,40
59.3,45
59.36,50
59.42,44
59.48,51
59.54,39
59.6,39
59.66,36
59.72,35
59.78,34
59.84,30
59.9,42
59.96,28
60.02,36
60.08,44
60.14,30
60.2,40
60.26,43
60.32,39
60.38,31
60.44,47
60.5,30
60.56,38
60.62,31
60.68,33
60.74,46
60.8,37
60.86,43
60.92,36
60.98,45
61.04,43
61.1,45
61.16,43
61.22,27
61.28,49
61.34,37
61.4,41
61.46,28
61.52,35
61.58,40
61.64,35
61.7,36
61.76,28
61.82,39
61.88,44
61.94,49
62,41
62.06,37
62.12,37
62.18,37
62.24,37
62.3,32
62.36,42
62.42,38
62.48,29
62.54,51
62.6,35
62.66,43
62.72,32
62.78,36
62.84,30
62.9,39
62.96,35
63.02,41
63.08,36
63.14,34
63.2,30
63.26,34
63.32,39
63.38,34
63.44,51
63.5,47
63.56,38
63.62,33
63.68,52
63.74,48
63.8,43
63.86,44
63.92,38
63.98,43
64.04,56
64.1,40
64.16,37
64.22,49
64.28,65
64.34,50
64.4,50
64.46,46
64.52,42
64.58,40
64.64,33
64.7,49
64.76,52
64.82,52
64.88,41
64.94,49
65,40
65.06,42
65.12,49
65.18,72
65.24,76
65.3,65
65.36,58
65.42,74
65.48,65
65.54,88
65.6,108
65.66,179
65.72,311
65.78,488
65.84,615
65.9,509
65.96,484
66.02,646
66.08,532
66.14,355
66.2,359
66.26,308
66.32,168
66.38,128
66.44,113
66.5,78
66.56,62
66.62,58
66.68,62
66.74,68
66.8,58
66.86,59
66.92,55
66.98,54
67.04,41
67.1,42
67.16,46
67.22,53
67.28,55
67.34,49
67.4,50
67.46,58
67.52,54
67.58,33
67.64,41
67.7,50
67.76,42
67.82,56
67.88,64
67.94,51
68,43
68.06,46
68.12,44
68.18,54
68.24,58
68.3,47
68.36,50
68.42,39
68.48,62
68.54,34
68.6,42
68.66,38
68.72,54
68.78,43
68.84,63
68.9,32
68.96,45
69.02,33
69.08,53
69.14,41
69.2,46
69.26,50
69.32,41
69.38,49
69.44,52
69.5,41
69.56,51
69.62,45
69.68,51
69.74,44
69.8,36
69.86,50
69.92,49
69.98,39
70.04,43
70.1,49
70.16,49
70.22,58
70.28,45
70.34,43
70.4,40
70.46,46
70.52,41
70.58,50
70.64,39
70.7,38
70.76,45
70.82,42
70.88,50
70.94,51
71,45
71.06,29
71.12,48
71.18,50
71.24,61
71.3,38
71.36,43
71.42,41
71.48,50
71.54,44
71.6,49
71.66,55
71.72,47
71.78,38
71.84,59
71.9,38
71.96,42
72.02,52
72.08,46
72.14,51
72.2,55
72.26,52
72.32,55
72.38,57
72.44,37
72.5,46
72.56,47
72.62,39
72.68,56
72.74,60
72.8,63
72.86,60
72.92,70
72.98,79
73.04,64
73.1,68
73.16,59
73.22,85
73.28,70
73.34,66
73.4,52
73.46,67
73.52,70
73.58,65
73.64,57
73.7,62
73.76,49
73.82,52
73.88,60
73.94,47
74,64
74.06,68
74.12,69
74.18,66
74.24,53
74.3,69
74.36,81
74.42,76
74.48,72
74.54,107
74.6,162
74.66,140
74.72,155
74.78,204
74.84,270
74.9,383
74.96,625
75.02,1302
75.08,1303
75.14,817
75.2,783
75.26,1017
75.32,795
75.38,454
75.44,362
75.5,273
75.56,239
75.62,142
75.68,130
75.74,111
75.8,79
75.86,63
75.92,55
75.98,58
76.04,68
76.1,70
76.16,54
76.22,61
76.28,57
76.34,68
76.4,60
76.46,54
76.52,36
76.58,59
76.64,50
76.7,41
76.76,60
76.82,50
76.88,57
76.94,52
77,61
77.06,53
77.12,47
77.18,57
77.24,56
77.3,53
77.36,51
77.42,56
77.48,64
77.54,56
77.6,46
77.66,50
77.72,50
77.78,39
77.84,50
77.9,46
77.96,51
78.02,59
78.08,55
78.14,60
78.2,53
78.26,53
78.32,49
78.38,56
78.44,45
78.5,58
78.56,43
78.62,43
78.68,56
78.74,53
78.8,42
78.86,44
78.92,44
78.98,55
79.04,39
79.1,55
79.16,50
79.22,56
79.28,44
79.34,44
79.4,53
79.46,45
79.52,59
79.58,44
79.64,54
79.7,46
79.76,47
79.82,38
79.88,50
79.94,49
80,47