File: Physics/PHYS 331 (Advanced Laboratory)/PHYS 331 Experiments/PHYS 331 Raman Spectroscopy/PHYS 331 RS TiO2 Data/PHYS 331 RS TI02 Antistokes (2 Sec) Run 1.csv
724.376,2790
724.431,2804
724.485,2804
724.54,2796
724.595,2754
724.65,2786
724.705,2821
724.76,2824
724.815,2840
724.87,2823
724.924,2817
724.979,2854
725.034,2851
725.089,2850
725.144,2837
725.199,2861
725.253,2847
725.308,2923
725.363,2866
725.418,2837
725.473,2829
725.527,2845
725.582,2880
725.637,2886
725.692,2871
725.747,2890
725.801,2915
725.856,2892
725.911,2920
725.966,2924
726.02,2892
726.075,2893
726.13,2881
726.185,2917
726.24,2928
726.294,2900
726.349,2901
726.404,2906
726.458,2887
726.513,2907
726.568,2886
726.623,2861
726.677,2911
726.732,2906
726.787,2930
726.842,2931
726.896,2915
726.951,2919
727.006,2898
727.06,2904
727.115,2967
727.17,2970
727.224,2912
727.279,2939
727.334,2951
727.388,2907
727.443,2949
727.498,2986
727.552,2944
727.607,2915
727.662,2951
727.716,2928
727.771,2941
727.826,2960
727.88,2982
727.935,2975
727.99,2932
728.044,2911
728.099,2942
728.153,2926
728.208,2934
728.263,2959
728.317,2927
728.372,2948
728.426,2941
728.481,2931
728.536,2986
728.59,2918
728.645,2948
728.699,2962
728.754,2923
728.809,2960
728.863,2894
728.918,2962
728.972,2910
729.027,2962
729.081,2991
729.136,2960
729.19,2970
729.245,2936
729.299,2925
729.354,2976
729.408,2976
729.463,2986
729.518,2966
729.572,2915
729.627,2958
729.681,3016
729.736,2997
729.79,2988
729.845,2986
729.899,2990
729.954,3008
730.008,3056
730.062,2971
730.117,3017
730.171,3002
730.226,3044
730.28,3037
730.335,3004
730.389,3020
730.444,2958
730.498,3037
730.553,3041
730.607,3018
730.661,3041
730.716,3019
730.77,3023
730.825,3036
730.879,3045
730.934,3030
730.988,3024
731.042,3030
731.097,3034
731.151,3062
731.206,3061
731.26,3037
731.314,3036
731.369,3051
731.423,3074
731.477,3055
731.532,3073
731.586,3035
731.641,3037
731.695,3111
731.749,3077
731.804,3061
731.858,3089
731.912,3093
731.967,3143
732.021,3109
732.075,3122
732.13,3119
732.184,3094
732.238,3111
732.293,3055
732.347,3141
732.401,3152
732.455,3132
732.51,3133
732.564,3120
732.618,3116
732.673,3115
732.727,3147
732.781,3157
732.835,3150
732.89,3153
732.944,3126
732.998,3092
733.052,3172
733.107,3146
733.161,3169
733.215,3125
733.269,3163
733.324,3139
733.378,3173
733.432,3189
733.486,3188
733.541,3179
733.595,3170
733.649,3183
733.703,3218
733.757,3200
733.812,3164
733.866,3179
733.92,3204
733.974,3190
734.028,3205
734.083,3206
734.137,3220
734.191,3245
734.245,3262
734.299,3226
734.353,3253
734.408,3248
734.462,3195
734.516,3291
734.57,3263
734.624,3242
734.678,3259
734.732,3278
734.786,3287
734.841,3308
734.895,3284
734.949,3270
735.003,3313
735.057,3371
735.111,3327
735.165,3281
735.219,3354
735.273,3306
735.327,3308
735.382,3308
735.436,3344
735.49,3320
735.544,3313
735.598,3331
735.652,3303
735.706,3344
735.76,3353
735.814,3318
735.868,3397
735.922,3385
735.976,3388
736.03,3369
736.084,3371
736.138,3375
736.192,3384
736.246,3402
736.3,3431
736.354,3401
736.408,3421
736.462,3430
736.516,3455
736.57,3455
736.624,3438
736.678,3425
736.732,3409
736.786,3358
736.84,3411
736.894,3448
736.948,3461
737.002,3444
737.056,3441
737.11,3479
737.164,3479
737.218,3533
737.272,3447
737.326,3553
737.38,3513
737.433,3534
737.487,3553
737.541,3522
737.595,3509
737.649,3568
737.703,3523
737.757,3580
737.811,3518
737.865,3493
737.919,3550
737.972,3543
738.026,3610
738.08,3603
738.134,3539
738.188,3589
738.242,3609
738.296,3608
738.349,3603
738.403,3617
738.457,3592
738.511,3618
738.565,3626
738.619,3637
738.672,3676
738.726,3629
738.78,3639
738.834,3691
738.888,3640
738.941,3626
738.995,3682
739.049,3699
739.103,3695
739.157,3693
739.21,3679
739.264,3736
739.318,3693
739.372,3712
739.426,3679
739.479,3728
739.533,3738
739.587,3748
739.641,3765
739.694,3727
739.748,3800
739.802,3788
739.855,3766
739.909,3772
739.963,3859
740.017,3785
740.07,3854
740.124,3863
740.178,3860
740.231,3836
740.285,3811
740.339,3882
740.393,3828
740.446,3855
740.5,3862
740.554,3918
740.607,3916
740.661,3920
740.715,3941
740.768,3929
740.822,3910
740.876,3959
740.929,3968
740.983,3998
741.037,4006
741.09,4018
741.144,3980
741.197,4002
741.251,4032
741.305,4072
741.358,4079
741.412,4073
741.465,4015
741.519,4126
741.573,4099
741.626,4180
741.68,4166
741.733,4157
741.787,4195
741.841,4184
741.894,4222
741.948,4199
742.001,4225
742.055,4223
742.108,4268
742.162,4319
742.215,4236
742.269,4284
742.323,4305
742.376,4248
742.43,4303
742.483,4325
742.537,4372
742.59,4418
742.644,4355
742.697,4356
742.751,4438
742.804,4428
742.858,4466
742.911,4519
742.965,4447
743.018,4476
743.072,4484
743.125,4474
743.179,4420
743.232,4468
743.285,4555
743.339,4540
743.392,4508
743.446,4555
743.499,4572
743.553,4612
743.606,4692
743.66,4688
743.713,4710
743.766,4736
743.82,4741
743.873,4774
743.927,4709
743.98,4758
744.033,4762
744.087,4820
744.14,4865
744.194,4861
744.247,4853
744.3,4870
744.354,4819
744.407,4893
744.46,4889
744.514,4926
744.567,4932
744.62,4916
744.674,4971
744.727,4963
744.781,4916
744.834,4992
744.887,5029
744.941,4980
744.994,5039
745.047,5048
745.1,5123
745.154,5086
745.207,5099
745.26,5132
745.314,5243
745.367,5273
745.42,5243
745.474,5350
745.527,5385
745.58,5315
745.633,5414
745.687,5510
745.74,5463
745.793,5567
745.846,5587
745.9,5595
745.953,5624
746.006,5676
746.059,5676
746.113,5708
746.166,5756
746.219,5777
746.272,5826
746.325,5847
746.379,5847
746.432,5906
746.485,5921
746.538,5935
746.591,6017
746.645,6045
746.698,6068
746.751,6137
746.804,6181
746.857,6266
746.91,6243
746.964,6283
747.017,6376
747.07,6438
747.123,6413
747.176,6531
747.229,6585
747.282,6566
747.336,6710
747.389,6753
747.442,6890
747.495,6899
747.548,7002
747.601,7112
747.654,7215
747.707,7255
747.76,7289
747.814,7432
747.867,7602
747.92,7696
747.973,7821
748.026,7906
748.079,7990
748.132,8054
748.185,8310
748.238,8470
748.291,8580
748.344,8552
748.397,8708
748.45,8992
748.503,9014
748.556,9142
748.609,9321
748.662,9346
748.715,9493
748.768,9522
748.821,9624
748.874,9612
748.927,9648
748.98,9761
749.033,9792
749.086,9775
749.139,9753
749.192,9706
749.245,9744
749.298,9718
749.351,9796
749.404,9747
749.457,9587
749.51,9545
749.563,9560
749.616,9493
749.669,9236
749.722,9272
749.775,9154
749.828,9139
749.881,9130
749.933,9009
749.986,8919
750.039,8876
750.092,8902
750.145,8779
750.198,8815
750.251,8690
750.304,8615
750.357,8621
750.409,8452
750.462,8459
750.515,8395
750.568,8380
750.621,8371
750.674,8400
750.727,8359
750.779,8360
750.832,8231
750.885,8217
750.938,8218
750.991,8162
751.044,8135
751.096,8167
751.149,8095
751.202,8099
751.255,8033
751.308,8088
751.36,7892
751.413,7954
751.466,7978
751.519,7907
751.571,7895
751.624,7911
751.677,7914
751.73,7919
751.783,7870
751.835,7821
751.888,7848
751.941,7985
751.993,7812
752.046,7826
752.099,7747
752.152,7790
752.204,7785
752.257,7731
752.31,7738
752.363,7765
752.415,7840
752.468,7808
752.521,7923
752.573,7896
752.626,7868
752.679,7863
752.731,7881
752.784,7935
752.837,7896
752.889,7845
752.942,7945
752.995,7990
753.047,7886
753.1,8079
753.153,8015
753.205,7924
753.258,8029
753.31,7991
753.363,7947
753.416,7991
753.468,7914
753.521,8010
753.573,7981
753.626,8000
753.679,7982
753.731,8034
753.784,8031
753.836,8161
753.889,8177
753.942,8159
753.994,7983
754.047,8136
754.099,8071
754.152,8242
754.204,8197
754.257,8260
754.309,8315
754.362,8331
754.414,8402
754.467,8404
754.52,8476
754.572,8540
754.625,8564
754.677,8436
754.73,8498
754.782,8523
754.835,8554
754.887,8579
754.94,8648
754.992,8574
755.044,8616
755.097,8656
755.149,8735
755.202,8697
755.254,8741
755.307,8803
755.359,8819
755.412,8846
755.464,8937
755.517,8933
755.569,9050
755.621,9098
755.674,9158
755.726,9163
755.779,9200
755.831,9259
755.883,9353
755.936,9387
755.988,9419
756.041,9553
756.093,9647
756.145,9767
756.198,9855
756.25,9963
756.302,10043
756.355,10098
756.407,10256
756.46,10268
756.512,10419
756.564,10604
756.617,10719
756.669,10918
756.721,11117
756.774,11306
756.826,11506
756.878,11666
756.93,11900
756.983,12103
757.035,12239
757.087,12553
757.14,12853
757.192,13027
757.244,13349
757.297,13519
757.349,13778
757.401,13997
757.453,14234
757.506,14545
757.558,14821
757.61,15142
757.662,15423
757.715,15651
757.767,15878
757.819,16163
757.871,16435
757.923,16530
757.976,16763
758.028,16888
758.08,17034
758.132,17160
758.185,17195
758.237,17191
758.289,17127
758.341,17147
758.393,17056
758.445,17098
758.498,16971
758.55,16918
758.602,16863
758.654,16756
758.706,16650
758.758,16600
758.811,16432
758.863,16326
758.915,15976
758.967,16026
759.019,15808
759.071,15732
759.123,15528
759.175,15425
759.228,15407
759.28,15160
759.332,14982
759.384,15008
759.436,14652
759.488,14602
759.54,14592
759.592,14369
759.644,14324
759.696,14232
759.748,14100
759.8,13912
759.852,13893
759.904,13804
759.957,13741
760.009,13752
760.061,13796
760.113,13773
760.165,13612
760.217,13626
760.269,13525
760.321,13442
760.373,13489
760.425,13334
760.477,13295
760.529,13249
760.581,13348
760.633,13171
760.685,13348
760.737,13261
760.789,13220
760.841,13203
760.892,13226
760.944,13284
760.996,13224
761.048,13137
761.1,13140
761.152,13248
761.204,13295
761.256,13240
761.308,13365
761.36,13292
761.412,13486
761.464,13513
761.516,13614
761.567,13551
761.619,13575
761.671,13623
761.723,13544
761.775,13406
761.827,13506
761.879,13311
761.931,13438
761.982,13564
762.034,13558
762.086,13545
762.138,13804
762.19,13847
762.242,13824
762.294,13789
762.345,13841
762.397,13750
762.449,13824
762.501,13857
762.553,13954
762.604,14021
762.656,13935
762.708,14250
762.76,14319
762.812,14235
762.863,14198
762.915,14231
762.967,14273
763.019,14363
763.07,14388
763.122,14454
763.174,14495
763.226,14720
763.277,14691
763.329,14487
763.381,14665
763.433,14720
763.484,14722
763.536,14828
763.588,14955
763.639,14819
763.691,14902
763.743,14992
763.795,15040
763.846,15230
763.898,15262
763.95,15202
764.001,15226
764.053,15256
764.105,15224
764.156,15331
764.208,15375
764.26,15508
764.311,15459
764.363,15576
764.414,15575
764.466,15661
764.518,15638
764.569,15529
764.621,15636
764.673,15683
764.724,15686
764.776,15756
764.827,15693
764.879,15718
764.931,15700
764.982,15921
765.034,16080
765.085,16062
765.137,16087
765.188,16014
765.24,16036
765.292,16018
765.343,16194
765.395,16138
765.446,16211
765.498,16254
765.549,16267
765.601,16275
765.652,16365
765.704,16531
765.755,16464
765.807,16542
765.858,16463
765.91,16770
765.961,16801
766.013,16855
766.064,16720
766.116,16751
766.167,16676
766.219,16543
766.27,16650
766.322,16762
766.373,16592
766.425,16525
766.476,16321
766.527,16336
766.579,16341
766.63,16227
766.682,16172
766.733,16189
766.785,15930
766.836,16080
766.887,16245
766.939,16403
766.99,16649
767.042,16898
767.093,17242
767.144,17449
767.196,17784
767.247,18359
767.298,18792
767.35,19103
767.401,19644
767.453,20190
767.504,20744
767.555,20997
767.607,21636
767.658,22239
767.709,22585
767.761,23246
767.812,23394
767.863,23633
767.914,23829
767.966,23938
768.017,24417
768.068,25017
768.12,25433
768.171,25883
768.222,26279
768.274,26924
768.325,27675
768.376,27962
768.427,28296
768.479,28607
768.53,28842
768.581,29286
768.632,29588
768.684,29663
768.735,29953
768.786,30186
768.837,30527
768.888,30347
768.94,29969
768.991,30052
769.042,30424
769.093,30145
769.144,29716
769.196,29609
769.247,29283
769.298,29232
769.349,28837
769.4,28730
769.452,28748
769.503,28339
769.554,27823
769.605,27728
769.656,27349
769.707,26890
769.758,27032
769.81,26798
769.861,26313
769.912,26410
769.963,26053
770.014,25898
770.065,25618
770.116,25478
770.167,25222
770.218,25069
770.27,24801
770.321,24593
770.372,24682
770.423,24500
770.474,23957
770.525,23854
770.576,23888
770.627,23565
770.678,23252
770.729,23036
770.78,22810
770.831,22643
770.882,22637
770.933,22604
770.984,22174
771.035,22012
771.086,21994
771.137,21723
771.188,21574
771.239,21622
771.29,21366
771.341,21059
771.392,21127
771.443,21031
771.494,20875
771.545,20880
771.596,20701
771.647,20876
771.698,20827
771.749,20786
771.8,20679
771.851,20764
771.902,20886
771.953,20795
772.004,20687
772.054,20781
772.105,21076
772.156,21132
772.207,21085
772.258,21111
772.309,21304
772.36,21338
772.411,21408
772.462,21598
772.512,21641
772.563,21739
772.614,21949
772.665,22304
772.716,22517
772.767,22532
772.818,22719
772.868,22495
772.919,22472
772.97,22543
773.021,22844
773.072,23011
773.123,22947
773.173,22877
773.224,23132
773.275,23356
773.326,23342
773.377,23419
773.427,23521
773.478,23680
773.529,23772
773.58,23685
773.63,23856
773.681,24170
773.732,24269
773.783,24540
773.833,24789
773.884,24889
773.935,25236
773.986,25486
774.036,25156
774.087,25129
774.138,24795
774.188,25039
774.239,25349
774.29,25640
774.341,25820
774.391,26004
774.442,26193
774.493,25999
774.543,26203
774.594,26450
774.645,26422
774.695,26390
774.746,26569
774.797,26672
774.847,27079
774.898,27149
774.949,26916
774.999,27194
775.05,27421
775.1,27742
775.151,27657
775.202,27703
775.252,27957
775.303,27912
775.353,28134
775.404,28443
775.455,28341
775.505,28169
775.556,28478
775.606,29085
775.657,29042
775.707,29202
775.758,29433
775.809,29275
775.859,29637
775.91,29455
775.96,29609
776.011,29999
776.061,29797
776.112,29728
776.162,29948
776.213,30318
776.263,30235
776.314,30590
776.364,30241
776.415,30445
776.465,30500
776.516,30153
776.566,29893
776.617,30014
776.667,30001
776.718,30132
776.768,29954
776.819,30212
776.869,29970
776.919,30387
776.97,30148
777.02,29889
777.071,29872
777.121,30298
777.172,29803
777.222,29908
777.272,29672
777.323,29906
777.373,30203
777.424,30694
777.474,30419
777.524,30658
777.575,30495
777.625,30687
777.675,31233
777.726,31308
777.776,31126
777.826,31033
777.877,31039
777.927,31091
777.977,31587
778.028,31613
778.078,30960
778.128,30730
778.179,31067
778.229,30739
778.279,30728