File: Physics/PHYS 331 (Advanced Laboratory)/PHYS 331 Experiments/PHYS 331 Raman Spectroscopy/PHYS 331 RS TiO2 Data/PHYS 331 RS TI02 Stokes (3 Sec) Run 2.csv
794.899,3882
794.951,3995
795.004,4022
795.056,4164
795.109,4249
795.161,4405
795.213,4621
795.266,4788
795.318,5043
795.371,5324
795.423,5730
795.476,6062
795.528,6559
795.581,7094
795.633,7558
795.686,8148
795.738,8689
795.79,9301
795.843,9889
795.895,10458
795.948,11203
796,11718
796.053,12278
796.105,12744
796.157,13289
796.21,13825
796.262,14389
796.315,14733
796.367,15242
796.419,15652
796.472,15975
796.524,16427
796.576,16682
796.629,16958
796.681,17197
796.734,17575
796.786,17808
796.838,18041
796.891,18145
796.943,18317
796.995,18605
797.048,18721
797.1,18966
797.152,19157
797.205,19336
797.257,19581
797.309,19592
797.362,19895
797.414,20040
797.466,20281
797.518,20334
797.571,20635
797.623,20800
797.675,20841
797.728,21099
797.78,21266
797.832,21335
797.884,21474
797.937,21571
797.989,21829
798.041,21850
798.093,21943
798.146,22162
798.198,22352
798.25,22480
798.302,22619
798.355,22772
798.407,22931
798.459,22977
798.511,23113
798.563,23218
798.616,23252
798.668,23421
798.72,23442
798.772,23725
798.824,23658
798.877,23894
798.929,23888
798.981,24015
799.033,24109
799.085,24054
799.137,24128
799.19,24188
799.242,24271
799.294,24287
799.346,24382
799.398,24232
799.45,24247
799.503,24294
799.555,24261
799.607,24468
799.659,24480
799.711,24229
799.763,24329
799.815,24294
799.867,24268
799.919,24159
799.972,24090
800.024,23981
800.076,23855
800.128,23874
800.18,23673
800.232,23622
800.284,23441
800.336,23376
800.388,23287
800.44,23156
800.492,22963
800.544,22882
800.596,22683
800.648,22479
800.7,22448
800.753,22302
800.805,22181
800.857,22002
800.909,21909
800.961,21765
801.013,21665
801.065,21553
801.117,21461
801.169,21305
801.221,21265
801.273,21047
801.325,21010
801.377,21038
801.429,20902
801.481,20749
801.533,20839
801.584,20725
801.636,20560
801.688,20587
801.74,20337
801.792,20281
801.844,20221
801.896,20227
801.948,20121
802,20089
802.052,20012
802.104,19892
802.156,19749
802.208,19654
802.26,19619
802.312,19480
802.363,19395
802.415,19331
802.467,19253
802.519,19206
802.571,19119
802.623,19015
802.675,18908
802.727,18780
802.779,18723
802.83,18598
802.882,18438
802.934,18349
802.986,18338
803.038,18114
803.09,18001
803.141,17979
803.193,17840
803.245,17713
803.297,17701
803.349,17640
803.401,17433
803.452,17502
803.504,17356
803.556,17271
803.608,17277
803.66,17321
803.711,17336
803.763,17187
803.815,17331
803.867,17205
803.919,17212
803.97,17196
804.022,17165
804.074,17224
804.126,17082
804.177,17155
804.229,17299
804.281,17310
804.333,17247
804.384,17309
804.436,17357
804.488,17424
804.539,17413
804.591,17385
804.643,17581
804.695,17559
804.746,17559
804.798,17596
804.85,17648
804.901,17731
804.953,17703
805.005,17645
805.056,17808
805.108,17721
805.16,17734
805.211,17790
805.263,17774
805.315,17837
805.366,17923
805.418,17852
805.47,17913
805.521,17867
805.573,18006
805.625,17911
805.676,17968
805.728,17942
805.779,17936
805.831,17881
805.883,17855
805.934,18000
805.986,18018
806.037,18009
806.089,17918
806.141,18038
806.192,18113
806.244,18096
806.295,18031
806.347,18099
806.399,18078
806.45,18242
806.502,18174
806.553,18223
806.605,18268
806.656,18383
806.708,18437
806.759,18390
806.811,18427
806.862,18529
806.914,18522
806.965,18527
807.017,18584
807.068,18590
807.12,18748
807.171,18826
807.223,18729
807.274,18742
807.326,18776
807.377,18762
807.429,18771
807.48,18824
807.532,18914
807.583,18906
807.635,18891
807.686,18937
807.738,18909
807.789,18925
807.841,18965
807.892,19004
807.943,19090
807.995,19055
808.046,19024
808.098,19026
808.149,18942
808.201,19043
808.252,18901
808.303,18994
808.355,19075
808.406,19090
808.457,19035
808.509,19035
808.56,19006
808.612,19158
808.663,19105
808.714,19110
808.766,19068
808.817,19214
808.868,19124
808.92,19190
808.971,19155
809.022,19232
809.074,19307
809.125,19189
809.176,19274
809.228,19346
809.279,19461
809.33,19464
809.382,19450
809.433,19560
809.484,19660
809.536,19837
809.587,19784
809.638,19775
809.689,19945
809.741,19933
809.792,20105
809.843,20210
809.895,20230
809.946,20510
809.997,20356
810.048,20613
810.1,20674
810.151,20839
810.202,21022
810.253,21042
810.305,21261
810.356,21413
810.407,21653
810.458,21871
810.509,22097
810.561,22274
810.612,22516
810.663,22708
810.714,22902
810.765,23320
810.817,23550
810.868,23961
810.919,24232
810.97,24590
811.021,24792
811.072,25128
811.124,25511
811.175,25936
811.226,26316
811.277,26648
811.328,27200
811.379,27695
811.43,28169
811.482,28491
811.533,28927
811.584,29408
811.635,30111
811.686,30512
811.737,31079
811.788,31728
811.839,32316
811.89,32857
811.941,33557
811.993,34287
812.044,34771
812.095,35542
812.146,36227
812.197,36640
812.248,37583
812.299,38307
812.35,38741
812.401,39583
812.452,40217
812.503,40958
812.554,41631
812.605,42359
812.656,43023
812.707,43614
812.758,44709
812.809,45090
812.86,45769
812.911,46201
812.962,46751
813.013,47379
813.064,47884
813.115,48276
813.166,48476
813.217,48731
813.268,49077
813.319,48946
813.37,48990
813.421,49015
813.472,48673
813.523,48440
813.574,48311
813.625,47692
813.676,47141
813.727,46664
813.778,45779
813.828,45070
813.879,44285
813.93,43392
813.981,42404
814.032,41617
814.083,40527
814.134,39445
814.185,38537
814.236,37545
814.286,36638
814.337,35419
814.388,34436
814.439,33434
814.49,32511
814.541,31555
814.592,30773
814.642,30061
814.693,29144
814.744,28351
814.795,27637
814.846,26958
814.897,26255
814.947,25675
814.998,24920
815.049,24545
815.1,23926
815.151,23458
815.201,22973
815.252,22626
815.303,22106
815.354,21716
815.405,21403
815.455,21044
815.506,20719
815.557,20378
815.608,19937
815.658,19820
815.709,19596
815.76,19432
815.811,19009
815.861,18727
815.912,18643
815.963,18315
816.014,18128
816.064,18040
816.115,17868
816.166,17654
816.216,17523
816.267,17457
816.318,17329
816.368,17284
816.419,17157
816.47,16943
816.521,16947
816.571,16873
816.622,16743
816.673,16620
816.723,16545
816.774,16456
816.824,16483
816.875,16370
816.926,16288
816.976,16257
817.027,16225
817.078,16185
817.128,16126
817.179,16204
817.229,16169
817.28,16083
817.331,16062
817.381,16037
817.432,16016
817.482,15970
817.533,16098
817.584,16070
817.634,16002
817.685,16019
817.735,15980
817.786,15933
817.836,16064
817.887,15894
817.938,16033
817.988,15918
818.039,16011
818.089,15980
818.14,16025
818.19,15994
818.241,15945
818.291,16002
818.342,15915
818.392,15998
818.443,15923
818.493,15983
818.544,16033
818.594,16018
818.645,16075
818.695,16035
818.746,16100
818.796,15989
818.847,16138
818.897,16088
818.947,16050
818.998,15997
819.048,16048
819.099,16114
819.149,16038
819.2,16073
819.25,16155
819.301,16089
819.351,16050
819.401,16186
819.452,16199
819.502,16193
819.553,16236
819.603,16285
819.653,16280
819.704,16355
819.754,16364
819.804,16492
819.855,16466
819.905,16569
819.956,16567
820.006,16622
820.056,16609
820.107,16699
820.157,16780
820.207,16871
820.258,16933
820.308,16938
820.358,16964
820.409,17038
820.459,17157
820.509,17194
820.56,17279
820.61,17424
820.66,17568
820.71,17544
820.761,17787
820.811,17837
820.861,17891
820.912,17974
820.962,18138
821.012,18328
821.062,18410
821.113,18653
821.163,18755
821.213,19054
821.263,19049
821.314,19145
821.364,19459
821.414,19608
821.464,19808
821.514,19872
821.565,20204
821.615,20281
821.665,20444
821.715,20869
821.765,21027
821.816,21300
821.866,21504
821.916,21740
821.966,22104
822.016,22285
822.066,22486
822.117,22852
822.167,23124
822.217,23621
822.267,23839
822.317,24229
822.367,24644
822.417,24903
822.468,25192
822.518,25445
822.568,26000
822.618,26345
822.668,26764
822.718,26980
822.768,27557
822.818,27974
822.868,28382
822.918,28743
822.969,29232
823.019,29769
823.069,30359
823.119,30630
823.169,31211
823.219,31870
823.269,32382
823.319,32870
823.369,33414
823.419,34044
823.469,34582
823.519,34992
823.569,35701
823.619,36105
823.669,36671
823.719,36996
823.769,37444
823.819,37904
823.869,38213
823.919,38763
823.969,38930
824.019,39265
824.069,39502
824.119,39549
824.169,39724
824.219,39923
824.269,39726
824.319,39579
824.369,39478
824.419,39319
824.469,39067
824.519,38611
824.569,38288
824.618,37917
824.668,37393
824.718,37039
824.768,36417
824.818,36016
824.868,35178
824.918,34575
824.968,34050
825.018,33484
825.068,32790
825.117,31996
825.167,31544
825.217,30856
825.267,30187
825.317,29544
825.367,28909
825.417,28322
825.466,27669
825.516,27030
825.566,26603
825.616,26128
825.666,25539
825.715,25026
825.765,24438
825.815,23980
825.865,23616
825.915,23141
825.964,22942
826.014,22440
826.064,21903
826.114,21733
826.164,21499
826.213,21139
826.263,20856
826.313,20587
826.363,20223
826.412,19866
826.462,19741
826.512,19471
826.562,19172
826.611,18887
826.661,18827
826.711,18590
826.76,18423
826.81,18126
826.86,18079
826.91,17853
826.959,17754
827.009,17532
827.059,17519
827.108,17265
827.158,17051
827.208,17014
827.257,16790
827.307,16774
827.357,16589
827.406,16626
827.456,16331
827.506,16290
827.555,16192
827.605,16137
827.655,16073
827.704,15915
827.754,15830
827.803,15693
827.853,15569
827.903,15598
827.952,15513
828.002,15501
828.051,15362
828.101,15292
828.151,15226
828.2,15151
828.25,15005
828.299,15052
828.349,15001
828.398,14907
828.448,14902
828.497,14763
828.547,14736
828.596,14602
828.646,14588
828.696,14583
828.745,14395
828.795,14432
828.844,14408
828.894,14413
828.943,14357
828.993,14241
829.042,14159
829.092,14126
829.141,14165
829.191,14040
829.24,14001
829.289,13930
829.339,13865
829.388,13846
829.438,13837
829.487,13709
829.537,13698
829.586,13704
829.636,13629
829.685,13671
829.734,13664
829.784,13577
829.833,13529
829.883,13489
829.932,13386
829.981,13437
830.031,13452
830.08,13289
830.13,13330
830.179,13286
830.228,13223
830.278,13151
830.327,13083
830.377,13096
830.426,12987
830.475,13052
830.525,12982
830.574,13030
830.623,12822
830.673,12868
830.722,12820
830.771,12791
830.821,12717
830.87,12718
830.919,12692
830.968,12709
831.018,12636
831.067,12608
831.116,12596
831.166,12414
831.215,12522
831.264,12477
831.313,12484
831.363,12256
831.412,12290
831.461,12348
831.51,12284
831.56,12257
831.609,12127
831.658,12121
831.707,12087
831.757,12037
831.806,12047
831.855,11918
831.904,11920
831.953,11899
832.003,11804
832.052,11783
832.101,11790
832.15,11699
832.199,11691
832.249,11654
832.298,11669
832.347,11533
832.396,11573
832.445,11372
832.494,11500
832.543,11428
832.593,11417
832.642,11344
832.691,11274
832.74,11172
832.789,11185
832.838,11163
832.887,11179
832.936,11155
832.986,11161
833.035,11052
833.084,11026
833.133,11024
833.182,10901
833.231,10953
833.28,10914
833.329,10884
833.378,10879
833.427,10823
833.476,10742
833.525,10665
833.574,10721
833.623,10791
833.672,10785
833.721,10746
833.77,10688
833.819,10718
833.868,10651
833.917,10654
833.966,10525
834.015,10528
834.064,10452
834.113,10502
834.162,10443
834.211,10450
834.26,10396
834.309,10449
834.358,10377
834.407,10332
834.456,10405
834.505,10382
834.554,10360
834.603,10359
834.652,10305
834.701,10250
834.75,10310
834.799,10240
834.848,10219
834.897,10316
834.945,10213
834.994,10190
835.043,10179
835.092,10264
835.141,10114
835.19,10220
835.239,10124
835.288,10132
835.336,10116
835.385,10181
835.434,10066
835.483,10151
835.532,10171
835.581,10027
835.629,10157
835.678,10079
835.727,10136
835.776,10051
835.825,9994
835.874,10020
835.922,9990
835.971,10021
836.02,10060
836.069,10063
836.117,10020
836.166,9980
836.215,9882
836.264,9928
836.313,9984
836.361,9988
836.41,9931
836.459,9913
836.508,9934
836.556,9941
836.605,9881
836.654,9870
836.702,9881
836.751,9926
836.8,9917
836.849,9879
836.897,9831
836.946,9801
836.995,9858
837.043,9773
837.092,9780
837.141,9746
837.189,9820
837.238,9747
837.287,9801
837.335,9762
837.384,9750
837.433,9786
837.481,9696
837.53,9693
837.579,9689
837.627,9704
837.676,9738
837.724,9644
837.773,9717
837.822,9696
837.87,9541
837.919,9619
837.967,9611
838.016,9654
838.065,9623
838.113,9599
838.162,9647
838.21,9566
838.259,9605
838.307,9591
838.356,9581
838.404,9487
838.453,9530
838.502,9575
838.55,9510
838.599,9609
838.647,9558
838.696,9583
838.744,9485
838.793,9635
838.841,9560
838.89,9573
838.938,9550
838.987,9521
839.035,9566
839.084,9495
839.132,9443
839.18,9553
839.229,9513
839.277,9569
839.326,9504
839.374,9512
839.423,9473
839.471,9442
839.52,9480
839.568,9505
839.616,9501
839.665,9480
839.713,9438
839.762,9492
839.81,9468
839.858,9436
839.907,9428
839.955,9546
840.004,9517
840.052,9490
840.1,9443
840.149,9419
840.197,9381
840.245,9410
840.294,9300
840.342,9386
840.39,9350
840.439,9388
840.487,9347
840.535,9357
840.584,9294
840.632,9366
840.68,9381
840.729,9342
840.777,9295
840.825,9259
840.873,9261
840.922,9272
840.97,9281
841.018,9231
841.067,9265
841.115,9280
841.163,9311
841.211,9270
841.26,9198
841.308,9272
841.356,9174
841.404,9226
841.452,9192
841.501,9232
841.549,9181
841.597,9160
841.645,9083
841.694,9159
841.742,9124
841.79,9138
841.838,9125
841.886,9165
841.934,9095
841.983,9084
842.031,9086
842.079,9060
842.127,9118
842.175,9041
842.223,9030
842.271,9036
842.32,9075
842.368,9107
842.416,9031
842.464,9034
842.512,9036
842.56,8966
842.608,9050
842.656,9029
842.704,8987
842.753,9014
842.801,9017
842.849,9042
842.897,9074
842.945,9030
842.993,9044
843.041,9019
843.089,9037
843.137,9036
843.185,8937
843.233,8943
843.281,8979
843.329,8969
843.377,8971
843.425,8977
843.473,8968
843.521,8966
843.569,9040
843.617,8958
843.665,9035
843.713,8976
843.761,8966
843.809,8933
843.857,8998
843.905,8975
843.953,8909
844.001,8983
844.049,8927
844.097,8982
844.145,8936
844.193,8991
844.241,8986
844.289,8897
844.336,8925
844.384,8957
844.432,8964
844.48,8966
844.528,8914
844.576,8949
844.624,9025
844.672,9009
844.72,8890
844.767,8919
844.815,8970
844.863,8905
844.911,8915
844.959,8901
845.007,8973
845.055,8901
845.102,8913
845.15,8934
845.198,8824
845.246,8882
845.294,8850
845.341,8853
845.389,8921
845.437,8887
845.485,8876
845.533,8790
845.58,8820
845.628,8909
845.676,8917
845.724,8918
845.771,8832
845.819,8833
845.867,8823
845.915,8850
845.962,8845
846.01,8822
846.058,8832
846.106,8797
846.153,8872
846.201,8819
846.249,8821