File: Physics/PHYS 331 (Advanced Laboratory)/PHYS 331 Experiments/PHYS 331 Raman Spectroscopy/PHYS 331 RS TiO2 Data/PHYS 331 RS TI02 Antistokes (4 Sec) Run 1.csv
724.376,4829
724.431,4896
724.485,4990
724.54,4987
724.595,4989
724.65,5013
724.705,5010
724.76,4998
724.815,5013
724.87,5034
724.924,5015
724.979,5024
725.034,5020
725.089,5060
725.144,5003
725.199,5083
725.253,5087
725.308,5091
725.363,5025
725.418,5078
725.473,5094
725.527,5117
725.582,5151
725.637,5132
725.692,5118
725.747,5146
725.801,5120
725.856,5130
725.911,5132
725.966,5126
726.02,5092
726.075,5179
726.13,5213
726.185,5162
726.24,5166
726.294,5152
726.349,5220
726.404,5150
726.458,5132
726.513,5165
726.568,5137
726.623,5192
726.677,5216
726.732,5134
726.787,5202
726.842,5195
726.896,5203
726.951,5244
727.006,5167
727.06,5183
727.115,5207
727.17,5215
727.224,5220
727.279,5186
727.334,5203
727.388,5161
727.443,5211
727.498,5221
727.552,5196
727.607,5196
727.662,5192
727.716,5302
727.771,5242
727.826,5264
727.88,5241
727.935,5222
727.99,5254
728.044,5206
728.099,5228
728.153,5203
728.208,5167
728.263,5171
728.317,5264
728.372,5230
728.426,5266
728.481,5273
728.536,5251
728.59,5203
728.645,5249
728.699,5250
728.754,5255
728.809,5235
728.863,5283
728.918,5245
728.972,5245
729.027,5258
729.081,5274
729.136,5309
729.19,5267
729.245,5270
729.299,5287
729.354,5375
729.408,5308
729.463,5291
729.518,5293
729.572,5315
729.627,5254
729.681,5318
729.736,5340
729.79,5327
729.845,5431
729.899,5391
729.954,5366
730.008,5423
730.062,5360
730.117,5364
730.171,5295
730.226,5406
730.28,5426
730.335,5383
730.389,5455
730.444,5364
730.498,5337
730.553,5429
730.607,5406
730.661,5430
730.716,5350
730.77,5489
730.825,5438
730.879,5429
730.934,5402
730.988,5506
731.042,5506
731.097,5467
731.151,5471
731.206,5486
731.26,5522
731.314,5488
731.369,5412
731.423,5441
731.477,5548
731.532,5468
731.586,5535
731.641,5522
731.695,5547
731.749,5569
731.804,5561
731.858,5503
731.912,5559
731.967,5551
732.021,5635
732.075,5572
732.13,5475
732.184,5543
732.238,5587
732.293,5611
732.347,5573
732.401,5556
732.455,5548
732.51,5601
732.564,5567
732.618,5647
732.673,5623
732.727,5614
732.781,5586
732.835,5607
732.89,5590
732.944,5635
732.998,5582
733.052,5597
733.107,5688
733.161,5632
733.215,5672
733.269,5675
733.324,5648
733.378,5680
733.432,5680
733.486,5716
733.541,5712
733.595,5670
733.649,5642
733.703,5673
733.757,5790
733.812,5779
733.866,5802
733.92,5750
733.974,5789
734.028,5778
734.083,5724
734.137,5821
734.191,5833
734.245,5883
734.299,5872
734.353,5892
734.408,5844
734.462,5884
734.516,5869
734.57,5871
734.624,5936
734.678,5834
734.732,5909
734.786,5884
734.841,5905
734.895,5875
734.949,5867
735.003,5931
735.057,5924
735.111,6017
735.165,5944
735.219,5942
735.273,6025
735.327,6003
735.382,6010
735.436,5967
735.49,6059
735.544,6026
735.598,6117
735.652,6048
735.706,6078
735.76,6033
735.814,6092
735.868,6129
735.922,6057
735.976,6095
736.03,6090
736.084,6128
736.138,6076
736.192,6043
736.246,6070
736.3,6160
736.354,6108
736.408,6078
736.462,6191
736.516,6182
736.57,6188
736.624,6152
736.678,6263
736.732,6235
736.786,6238
736.84,6234
736.894,6167
736.948,6293
737.002,6273
737.056,6340
737.11,6367
737.164,6274
737.218,6406
737.272,6386
737.326,6348
737.38,6389
737.433,6419
737.487,6410
737.541,6402
737.595,6418
737.649,6452
737.703,6379
737.757,6357
737.811,6443
737.865,6452
737.919,6497
737.972,6410
738.026,6485
738.08,6598
738.134,6473
738.188,6540
738.242,6507
738.296,6537
738.349,6521
738.403,6543
738.457,6568
738.511,6605
738.565,6504
738.619,6670
738.672,6670
738.726,6606
738.78,6635
738.834,6584
738.888,6590
738.941,6677
738.995,6652
739.049,6747
739.103,6710
739.157,6684
739.21,6791
739.264,6689
739.318,6746
739.372,6775
739.426,6730
739.479,6744
739.533,6737
739.587,6863
739.641,6801
739.694,6789
739.748,6828
739.802,6900
739.855,6907
739.909,6916
739.963,6947
740.017,7045
740.07,7058
740.124,7000
740.178,7070
740.231,7071
740.285,7074
740.339,7123
740.393,7115
740.446,7135
740.5,7091
740.554,7162
740.607,7125
740.661,7203
740.715,7243
740.768,7189
740.822,7199
740.876,7314
740.929,7191
740.983,7277
741.037,7368
741.09,7437
741.144,7379
741.197,7362
741.251,7325
741.305,7407
741.358,7459
741.412,7406
741.465,7418
741.519,7524
741.573,7607
741.626,7619
741.68,7582
741.733,7665
741.787,7787
741.841,7634
741.894,7702
741.948,7719
742.001,7762
742.055,7764
742.108,7876
742.162,7818
742.215,7836
742.269,7889
742.323,7853
742.376,7867
742.43,7872
742.483,7928
742.537,8052
742.59,8180
742.644,8186
742.697,8126
742.751,8200
742.804,8213
742.858,8250
742.911,8251
742.965,8279
743.018,8338
743.072,8228
743.125,8380
743.179,8295
743.232,8441
743.285,8467
743.339,8466
743.392,8426
743.446,8486
743.499,8468
743.553,8600
743.606,8592
743.66,8658
743.713,8578
743.766,8671
743.82,8678
743.873,8798
743.927,8801
743.98,8806
744.033,8758
744.087,8998
744.14,8815
744.194,8886
744.247,8964
744.3,9045
744.354,9080
744.407,8971
744.46,9168
744.514,9227
744.567,9119
744.62,9254
744.674,9236
744.727,9247
744.781,9313
744.834,9307
744.887,9309
744.941,9267
744.994,9356
745.047,9456
745.1,9442
745.154,9508
745.207,9535
745.26,9691
745.314,9766
745.367,9774
745.42,9792
745.474,9915
745.527,10090
745.58,10054
745.633,10158
745.687,10262
745.74,10315
745.793,10378
745.846,10440
745.9,10457
745.953,10503
746.006,10754
746.059,10625
746.113,10637
746.166,10910
746.219,10901
746.272,11058
746.325,10929
746.379,11013
746.432,11078
746.485,11113
746.538,11175
746.591,11213
746.645,11295
746.698,11347
746.751,11452
746.804,11484
746.857,11620
746.91,11790
746.964,11924
747.017,12004
747.07,12186
747.123,12222
747.176,12289
747.229,12278
747.282,12541
747.336,12782
747.389,12897
747.442,13048
747.495,13139
747.548,13308
747.601,13414
747.654,13575
747.707,13987
747.76,13998
747.814,14214
747.867,14331
747.92,14564
747.973,14743
748.026,14981
748.079,15362
748.132,15551
748.185,15745
748.238,16016
748.291,16395
748.344,16454
748.397,16758
748.45,17073
748.503,17368
748.556,17406
748.609,17584
748.662,17876
748.715,18178
748.768,18307
748.821,18464
748.874,18693
748.927,18754
748.98,18659
749.033,18792
749.086,18867
749.139,18893
749.192,18877
749.245,18718
749.298,18844
749.351,18707
749.404,18572
749.457,18468
749.51,18468
749.563,18211
749.616,18163
749.669,17987
749.722,17882
749.775,17673
749.828,17518
749.881,17493
749.933,17414
749.986,17110
750.039,16904
750.092,16855
750.145,16782
750.198,16744
750.251,16575
750.304,16521
750.357,16454
750.409,16381
750.462,16306
750.515,16362
750.568,16193
750.621,16054
750.674,16118
750.727,15958
750.779,15851
750.832,15665
750.885,15659
750.938,15552
750.991,15526
751.044,15513
751.096,15420
751.149,15410
751.202,15304
751.255,15351
751.308,15245
751.36,15149
751.413,15138
751.466,15099
751.519,15015
751.571,14923
751.624,14953
751.677,14849
751.73,14861
751.783,14839
751.835,14857
751.888,14881
751.941,14940
751.993,14776
752.046,14772
752.099,14945
752.152,14859
752.204,14874
752.257,14965
752.31,14845
752.363,14723
752.415,14919
752.468,14982
752.521,14860
752.573,14856
752.626,14913
752.679,14971
752.731,14986
752.784,15114
752.837,14981
752.889,14954
752.942,14919
752.995,15088
753.047,15220
753.1,15068
753.153,15099
753.205,15182
753.258,15136
753.31,15254
753.363,15295
753.416,15289
753.468,15231
753.521,15290
753.573,15346
753.626,15461
753.679,15451
753.731,15467
753.784,15282
753.836,15706
753.889,15445
753.942,15476
753.994,15486
754.047,15554
754.099,15625
754.152,15770
754.204,16014
754.257,15904
754.309,15923
754.362,16182
754.414,16153
754.467,16023
754.52,16323
754.572,16234
754.625,16306
754.677,16292
754.73,16277
754.782,16274
754.835,16398
754.887,16612
754.94,16682
754.992,16666
755.044,16706
755.097,16714
755.149,16744
755.202,16820
755.254,16674
755.307,16898
755.359,17019
755.412,16985
755.464,17409
755.517,17450
755.569,17536
755.621,17566
755.674,17440
755.726,17580
755.779,17734
755.831,17717
755.883,17791
755.936,17960
755.988,18038
756.041,18241
756.093,18402
756.145,18605
756.198,18740
756.25,19006
756.302,19322
756.355,19595
756.407,19754
756.46,19985
756.512,20232
756.564,20753
756.617,20778
756.669,21065
756.721,21397
756.774,21857
756.826,22286
756.878,22368
756.93,22872
756.983,23253
757.035,23662
757.087,23996
757.14,24534
757.192,24994
757.244,25611
757.297,26149
757.349,26553
757.401,26975
757.453,27637
757.506,28236
757.558,28952
757.61,29523
757.662,29997
757.715,30551
757.767,31275
757.819,31620
757.871,32222
757.923,32525
757.976,32906
758.028,33356
758.08,33399
758.132,33729
758.185,33747
758.237,33699
758.289,33656
758.341,33797
758.393,33683
758.445,33571
758.498,33289
758.55,33198
758.602,33200
758.654,32858
758.706,32588
758.758,32308
758.811,32359
758.863,31957
758.915,31496
758.967,31243
759.019,31079
759.071,30634
759.123,30334
759.175,30159
759.228,30034
759.28,29550
759.332,29311
759.384,29021
759.436,28580
759.488,28519
759.54,28277
759.592,28061
759.644,27882
759.696,27737
759.748,27562
759.8,27381
759.852,27074
759.904,27017
759.957,27084
760.009,26746
760.061,26855
760.113,26866
760.165,26500
760.217,26485
760.269,26249
760.321,26028
760.373,25903
760.425,25846
760.477,25805
760.529,25868
760.581,25847
760.633,25822
760.685,25961
760.737,25974
760.789,25800
760.841,25754
760.892,25563
760.944,25628
760.996,25509
761.048,25443
761.1,25767
761.152,25745
761.204,25711
761.256,25755
761.308,25736
761.36,25911
761.412,26086
761.464,26205
761.516,26287
761.567,26154
761.619,26210
761.671,26346
761.723,26298
761.775,26269
761.827,26347
761.879,26335
761.931,26524
761.982,26553
762.034,26652
762.086,26488
762.138,26640
762.19,27025
762.242,26814
762.294,26836
762.345,26984
762.397,26920
762.449,26968
762.501,27078
762.553,26971
762.604,27228
762.656,27365
762.708,27596
762.76,27636
762.812,27885
762.863,27712
762.915,27699
762.967,27784
763.019,28111
763.07,27912
763.122,28305
763.174,28449
763.226,28292
763.277,28442
763.329,28655
763.381,28777
763.433,28815
763.484,28832
763.536,28911
763.588,28785
763.639,28864
763.691,28867
763.743,29008
763.795,29490
763.846,29469
763.898,29591
763.95,29742
764.001,29691
764.053,29876
764.105,29751
764.156,30011
764.208,30222
764.26,30083
764.311,30131
764.363,30136
764.414,30179
764.466,30183
764.518,30376
764.569,30345
764.621,30514
764.673,30477
764.724,30765
764.776,30689
764.827,30769
764.879,30606
764.931,30922
764.982,30821
765.034,31345
765.085,31469
765.137,31490
765.188,31598
765.24,31454
765.292,31634
765.343,31763
765.395,31820
765.446,31685
765.498,31929
765.549,32088
765.601,31974
765.652,32002
765.704,32467
765.755,32434
765.807,32450
765.858,32447
765.91,32869
765.961,32764
766.013,32998
766.064,32940
766.116,33074
766.167,33075
766.219,32812
766.27,32664
766.322,32533
766.373,32419
766.425,32349
766.476,31905
766.527,31781
766.579,31714
766.63,31499
766.682,31600
766.733,31503
766.785,31390
766.836,31579
766.887,32001
766.939,32328
766.99,32629
767.042,33132
767.093,33477
767.144,34183
767.196,35393
767.247,36020
767.298,36956
767.35,37609
767.401,38524
767.453,39598
767.504,40363
767.555,41263
767.607,42548
767.658,43608
767.709,44584
767.761,45459
767.812,46028
767.863,46521
767.914,47031
767.966,47571
768.017,48397
768.068,49446
768.12,49993
768.171,50653
768.222,51774
768.274,53244
768.325,54110
768.376,55036
768.427,55852
768.479,56890
768.53,57297
768.581,57269
768.632,58100
768.684,58237
768.735,58941
768.786,59638
768.837,60037
768.888,60397
768.94,59359
768.991,59385
769.042,60138
769.093,60033
769.144,59189
769.196,58984
769.247,58241
769.298,57559
769.349,57058
769.4,56732
769.452,56260
769.503,55634
769.554,54434
769.605,54344
769.656,54113
769.707,53611
769.758,53561
769.81,52900
769.861,52313
769.912,52115
769.963,51423
770.014,51162
770.065,50626
770.116,50690
770.167,50092
770.218,49577
770.27,49203
770.321,48642
770.372,48610
770.423,47948
770.474,47779
770.525,47051
770.576,47047
770.627,46639
770.678,45974
770.729,45637
770.78,45089
770.831,44892
770.882,44790
770.933,44170
770.984,43897
771.035,43109
771.086,42619
771.137,42406
771.188,42235
771.239,42194
771.29,41775
771.341,41693
771.392,41530
771.443,41528
771.494,41073
771.545,40687
771.596,40517
771.647,40620
771.698,40849
771.749,40918
771.8,40422
771.851,40789
771.902,40796
771.953,40905
772.004,40521
772.054,40952
772.105,41299
772.156,41812
772.207,42338
772.258,42336
772.309,42129
772.36,42523
772.411,42736
772.462,43044
772.512,42952
772.563,43525
772.614,43643
772.665,44022
772.716,44603
772.767,44628
772.818,44922
772.868,44707
772.919,44982
772.97,44797
773.021,45023
773.072,45819
773.123,45754
773.173,45918
773.224,46036
773.275,46345
773.326,46538
773.377,46507
773.427,46623
773.478,46885
773.529,47010
773.58,47138
773.63,47384
773.681,47792
773.732,48373
773.783,48295
773.833,48883
773.884,48716
773.935,49255
773.986,49972
774.036,49721
774.087,49664
774.138,49817
774.188,50058
774.239,50183
774.29,50703
774.341,51300
774.391,51171
774.442,51075
774.493,51159
774.543,52134
774.594,52882
774.645,52762
774.695,52275
774.746,52627
774.797,52972
774.847,53537
774.898,53455
774.949,53530
774.999,53777
775.05,54675
775.1,55037
775.151,54614
775.202,55281
775.252,55983
775.303,55511
775.353,55600
775.404,56438
775.455,56061
775.505,56227
775.556,56143
775.606,57472
775.657,56998
775.707,57407
775.758,57738
775.809,57763
775.859,58830
775.91,59084
775.96,58730
776.011,58764
776.061,58901
776.112,59147
776.162,58889
776.213,59684
776.263,60151
776.314,60155
776.364,60230
776.415,60207
776.465,60225
776.516,59760
776.566,59624
776.617,59776
776.667,59528
776.718,59301
776.768,59700
776.819,59983
776.869,60001
776.919,60540
776.97,60754
777.02,59959
777.071,59262
777.121,59748
777.172,59891
777.222,59647
777.272,59196
777.323,59593
777.373,59831
777.424,60665
777.474,60220
777.524,61114
777.575,60532
777.625,60584
777.675,61612
777.726,61358
777.776,61306
777.826,61685
777.877,62736
777.927,62554
777.977,63049
778.028,62475
778.078,62589
778.128,61810
778.179,62755
778.229,62358
778.279,61504