File: Physics/PHYS 331 (Advanced Laboratory)/PHYS 331 Experiments/PHYS 331 Raman Spectroscopy/PHYS 331 RS TiO2 Data/PHYS 331 RS TI02 Stokes (2 Sec) Run 1.csv
794.899,2744
794.951,2879
795.004,2956
795.056,3028
795.109,3064
795.161,3177
795.213,3299
795.266,3419
795.318,3589
795.371,3807
795.423,4071
795.476,4286
795.528,4684
795.581,4957
795.633,5339
795.686,5754
795.738,6162
795.79,6492
795.843,6920
795.895,7325
795.948,7737
796,8117
796.053,8475
796.105,8781
796.157,9250
796.21,9629
796.262,9925
796.315,10193
796.367,10493
796.419,10766
796.472,11017
796.524,11222
796.576,11464
796.629,11710
796.681,11828
796.734,12098
796.786,12212
796.838,12462
796.891,12492
796.943,12694
796.995,12770
797.048,12914
797.1,13064
797.152,13208
797.205,13266
797.257,13401
797.309,13466
797.362,13637
797.414,13788
797.466,13910
797.518,14023
797.571,14178
797.623,14209
797.675,14321
797.728,14487
797.78,14561
797.832,14553
797.884,14699
797.937,14863
797.989,14928
798.041,15152
798.093,15176
798.146,15224
798.198,15277
798.25,15340
798.302,15633
798.355,15582
798.407,15688
798.459,15773
798.511,15868
798.563,15920
798.616,16054
798.668,15979
798.72,16116
798.772,16110
798.824,16249
798.877,16282
798.929,16369
798.981,16347
799.033,16381
799.085,16552
799.137,16475
799.19,16482
799.242,16675
799.294,16556
799.346,16596
799.398,16619
799.45,16701
799.503,16672
799.555,16748
799.607,16632
799.659,16720
799.711,16669
799.763,16639
799.815,16653
799.867,16629
799.919,16507
799.972,16558
800.024,16491
800.076,16476
800.128,16350
800.18,16259
800.232,16179
800.284,16094
800.336,16030
800.388,15941
800.44,15888
800.492,15776
800.544,15644
800.596,15570
800.648,15343
800.7,15337
800.753,15266
800.805,15181
800.857,15132
800.909,15073
800.961,14855
801.013,14868
801.065,14815
801.117,14770
801.169,14643
801.221,14562
801.273,14467
801.325,14460
801.377,14406
801.429,14323
801.481,14260
801.533,14188
801.584,14212
801.636,14200
801.688,14122
801.74,14009
801.792,13872
801.844,13831
801.896,13920
801.948,13807
802,13748
802.052,13721
802.104,13745
802.156,13522
802.208,13540
802.26,13527
802.312,13361
802.363,13397
802.415,13283
802.467,13296
802.519,13182
802.571,13088
802.623,12970
802.675,12968
802.727,12981
802.779,12747
802.83,12890
802.882,12700
802.934,12666
802.986,12506
803.038,12517
803.09,12444
803.141,12422
803.193,12322
803.245,12239
803.297,12201
803.349,12118
803.401,12097
803.452,12052
803.504,12027
803.556,11961
803.608,11857
803.66,11902
803.711,11949
803.763,11826
803.815,11835
803.867,11917
803.919,11798
803.97,11767
804.022,11868
804.074,11822
804.126,11850
804.177,11774
804.229,11903
804.281,11782
804.333,11940
804.384,11993
804.436,11957
804.488,12009
804.539,11953
804.591,12001
804.643,11990
804.695,12093
804.746,12101
804.798,12082
804.85,12086
804.901,12177
804.953,12218
805.005,12207
805.056,12262
805.108,12300
805.16,12265
805.211,12172
805.263,12260
805.315,12301
805.366,12361
805.418,12319
805.47,12273
805.521,12348
805.573,12285
805.625,12362
805.676,12382
805.728,12334
805.779,12309
805.831,12378
805.883,12396
805.934,12359
805.986,12438
806.037,12476
806.089,12444
806.141,12399
806.192,12495
806.244,12437
806.295,12395
806.347,12470
806.399,12532
806.45,12497
806.502,12525
806.553,12445
806.605,12517
806.656,12694
806.708,12645
806.759,12646
806.811,12666
806.862,12662
806.914,12673
806.965,12705
807.017,12781
807.068,12861
807.12,12786
807.171,12972
807.223,12817
807.274,12995
807.326,12855
807.377,12986
807.429,12913
807.48,12919
807.532,12966
807.583,12942
807.635,12989
807.686,12977
807.738,13072
807.789,13113
807.841,13044
807.892,13063
807.943,13032
807.995,13252
808.046,13055
808.098,13066
808.149,13024
808.201,13064
808.252,13113
808.303,13131
808.355,13094
808.406,13071
808.457,13140
808.509,13082
808.56,13137
808.612,13315
808.663,13138
808.714,13261
808.766,13186
808.817,13141
808.868,13194
808.92,13168
808.971,13274
809.022,13275
809.074,13266
809.125,13263
809.176,13302
809.228,13324
809.279,13383
809.33,13338
809.382,13436
809.433,13462
809.484,13402
809.536,13505
809.587,13568
809.638,13609
809.689,13672
809.741,13707
809.792,13802
809.843,13876
809.895,13844
809.946,13959
809.997,14134
810.048,14179
810.1,14189
810.151,14303
810.202,14414
810.253,14572
810.305,14658
810.356,14702
810.407,14928
810.458,14978
810.509,15161
810.561,15244
810.612,15413
810.663,15672
810.714,15739
810.765,15921
810.817,16185
810.868,16351
810.919,16492
810.97,16853
811.021,17080
811.072,17267
811.124,17405
811.175,17711
811.226,18021
811.277,18284
811.328,18548
811.379,18860
811.43,19190
811.482,19463
811.533,19741
811.584,20134
811.635,20589
811.686,20862
811.737,21177
811.788,21696
811.839,22049
811.89,22437
811.941,22868
811.993,23267
812.044,23587
812.095,24119
812.146,24698
812.197,25040
812.248,25530
812.299,25982
812.35,26433
812.401,26839
812.452,27415
812.503,27736
812.554,28202
812.605,28836
812.656,29190
812.707,29755
812.758,30204
812.809,30605
812.86,31088
812.911,31410
812.962,31833
813.013,32139
813.064,32399
813.115,32779
813.166,32890
813.217,33096
813.268,33246
813.319,33259
813.37,33289
813.421,33170
813.472,33068
813.523,32924
813.574,32711
813.625,32434
813.676,31939
813.727,31617
813.778,31132
813.828,30579
813.879,30135
813.93,29547
813.981,28777
814.032,28240
814.083,27546
814.134,26890
814.185,26215
814.236,25386
814.286,24933
814.337,24056
814.388,23457
814.439,22803
814.49,22221
814.541,21623
814.592,21141
814.642,20374
814.693,19944
814.744,19346
814.795,18863
814.846,18482
814.897,18024
814.947,17651
814.998,17097
815.049,16750
815.1,16378
815.151,16016
815.201,15684
815.252,15541
815.303,15114
815.354,14832
815.405,14618
815.455,14482
815.506,14203
815.557,13963
815.608,13744
815.658,13572
815.709,13480
815.76,13212
815.811,13015
815.861,12872
815.912,12790
815.963,12627
816.014,12578
816.064,12441
816.115,12322
816.166,12241
816.216,12083
816.267,11978
816.318,11983
816.368,11835
816.419,11763
816.47,11761
816.521,11614
816.571,11635
816.622,11596
816.673,11536
816.723,11430
816.774,11393
816.824,11221
816.875,11233
816.926,11331
816.976,11109
817.027,11163
817.078,11153
817.128,11150
817.179,11203
817.229,11078
817.28,11134
817.331,11163
817.381,11058
817.432,11155
817.482,11134
817.533,11100
817.584,11046
817.634,11063
817.685,10959
817.735,11074
817.786,11006
817.836,11060
817.887,11021
817.938,11120
817.988,11042
818.039,11072
818.089,11000
818.14,11091
818.19,11046
818.241,11026
818.291,11030
818.342,11074
818.392,11118
818.443,11100
818.493,10974
818.544,10995
818.594,10998
818.645,11092
818.695,11095
818.746,11167
818.796,11144
818.847,11105
818.897,11038
818.947,11022
818.998,11138
819.048,11099
819.099,11092
819.149,11083
819.2,11113
819.25,11148
819.301,11125
819.351,11148
819.401,11159
819.452,11233
819.502,11262
819.553,11213
819.603,11192
819.653,11313
819.704,11325
819.754,11309
819.804,11266
819.855,11364
819.905,11288
819.956,11425
820.006,11468
820.056,11540
820.107,11595
820.157,11551
820.207,11641
820.258,11684
820.308,11663
820.358,11698
820.409,11805
820.459,11949
820.509,11831
820.56,11887
820.61,12014
820.66,11973
820.71,12133
820.761,12235
820.811,12293
820.861,12285
820.912,12410
820.962,12474
821.012,12586
821.062,12645
821.113,12785
821.163,12872
821.213,12991
821.263,13131
821.314,13244
821.364,13323
821.414,13423
821.464,13609
821.514,13742
821.565,13889
821.615,14014
821.665,14147
821.715,14339
821.765,14473
821.816,14663
821.866,14753
821.916,14968
821.966,15175
822.016,15269
822.066,15448
822.117,15670
822.167,15881
822.217,16180
822.267,16315
822.317,16559
822.367,16726
822.417,17027
822.468,17219
822.518,17473
822.568,17805
822.618,18007
822.668,18303
822.718,18504
822.768,18944
822.818,19104
822.868,19415
822.918,19774
822.969,20029
823.019,20329
823.069,20622
823.119,20939
823.169,21366
823.219,21711
823.269,22096
823.319,22459
823.369,22738
823.419,23104
823.469,23594
823.519,23906
823.569,24280
823.619,24512
823.669,24913
823.719,25169
823.769,25601
823.819,25911
823.869,26172
823.919,26356
823.969,26556
824.019,26709
824.069,26756
824.119,26876
824.169,27165
824.219,27057
824.269,27109
824.319,26913
824.369,26855
824.419,26877
824.469,26592
824.519,26325
824.569,26165
824.618,25904
824.668,25533
824.718,25186
824.768,24981
824.818,24375
824.868,24014
824.918,23822
824.968,23280
825.018,22795
825.068,22395
825.117,21872
825.167,21598
825.217,21045
825.267,20728
825.317,20247
825.367,19787
825.417,19391
825.466,19086
825.516,18612
825.566,18257
825.616,17885
825.666,17532
825.715,17110
825.765,16937
825.815,16587
825.865,16247
825.915,15813
825.964,15717
826.014,15509
826.064,15242
826.114,14939
826.164,14732
826.213,14544
826.263,14221
826.313,14050
826.363,13919
826.412,13713
826.462,13525
826.512,13404
826.562,13303
826.611,13095
826.661,13013
826.711,12779
826.76,12674
826.81,12523
826.86,12471
826.91,12231
826.959,12128
827.009,12127
827.059,11980
827.108,11949
827.158,11784
827.208,11695
827.257,11567
827.307,11546
827.357,11465
827.406,11464
827.456,11368
827.506,11228
827.555,11216
827.605,11034
827.655,11008
827.704,10969
827.754,10986
827.803,10813
827.853,10728
827.903,10787
827.952,10668
828.002,10650
828.051,10584
828.101,10528
828.151,10537
828.2,10411
828.25,10410
828.299,10395
828.349,10300
828.398,10286
828.448,10274
828.497,10267
828.547,10254
828.596,10205
828.646,10106
828.696,10086
828.745,9940
828.795,9996
828.844,9931
828.894,9925
828.943,9910
828.993,9859
829.042,9836
829.092,9729
829.141,9700
829.191,9722
829.24,9635
829.289,9683
829.339,9630
829.388,9594
829.438,9583
829.487,9513
829.537,9586
829.586,9461
829.636,9454
829.685,9459
829.734,9385
829.784,9397
829.833,9398
829.883,9337
829.932,9270
829.981,9244
830.031,9212
830.08,9223
830.13,9262
830.179,9125
830.228,9130
830.278,9062
830.327,9069
830.377,9070
830.426,9044
830.475,8983
830.525,8961
830.574,8999
830.623,8948
830.673,8983
830.722,8931
830.771,8874
830.821,8870
830.87,8858
830.919,8820
830.968,8803
831.018,8755
831.067,8767
831.116,8666
831.166,8681
831.215,8624
831.264,8614
831.313,8623
831.363,8532
831.412,8544
831.461,8485
831.51,8541
831.56,8466
831.609,8440
831.658,8408
831.707,8401
831.757,8380
831.806,8348
831.855,8375
831.904,8266
831.953,8307
832.003,8252
832.052,8168
832.101,8222
832.15,8198
832.199,8127
832.249,8062
832.298,8080
832.347,7974
832.396,7998
832.445,7996
832.494,7975
832.543,7917
832.593,7963
832.642,7865
832.691,7927
832.74,7875
832.789,7845
832.838,7763
832.887,7797
832.936,7757
832.986,7711
833.035,7625
833.084,7711
833.133,7653
833.182,7645
833.231,7605
833.28,7664
833.329,7583
833.378,7560
833.427,7509
833.476,7529
833.525,7511
833.574,7531
833.623,7456
833.672,7520
833.721,7396
833.77,7432
833.819,7377
833.868,7373
833.917,7443
833.966,7341
834.015,7313
834.064,7347
834.113,7235
834.162,7317
834.211,7252
834.26,7246
834.309,7229
834.358,7238
834.407,7224
834.456,7243
834.505,7192
834.554,7287
834.603,7144
834.652,7222
834.701,7180
834.75,7179
834.799,7146
834.848,7195
834.897,7204
834.945,7122
834.994,7141
835.043,7098
835.092,7146
835.141,7164
835.19,7137
835.239,7083
835.288,7056
835.336,7057
835.385,7109
835.434,7046
835.483,7045
835.532,7093
835.581,7048
835.629,7072
835.678,6985
835.727,6986
835.776,6966
835.825,6995
835.874,7069
835.922,7016
835.971,6971
836.02,6964
836.069,6955
836.117,6905
836.166,6993
836.215,6932
836.264,6904
836.313,6979
836.361,6958
836.41,6960
836.459,6913
836.508,6972
836.556,6910
836.605,6894
836.654,6886
836.702,6866
836.751,6962
836.8,6917
836.849,6841
836.897,6867
836.946,6894
836.995,6928
837.043,6836
837.092,6874
837.141,6829
837.189,6825
837.238,6801
837.287,6776
837.335,6871
837.384,6844
837.433,6808
837.481,6822
837.53,6774
837.579,6826
837.627,6784
837.676,6676
837.724,6755
837.773,6787
837.822,6750
837.87,6727
837.919,6749
837.967,6741
838.016,6755
838.065,6701
838.113,6733
838.162,6755
838.21,6716
838.259,6692
838.307,6678
838.356,6657
838.404,6680
838.453,6673
838.502,6691
838.55,6733
838.599,6713
838.647,6644
838.696,6675
838.744,6669
838.793,6641
838.841,6679
838.89,6686
838.938,6702
838.987,6656
839.035,6653
839.084,6644
839.132,6706
839.18,6584
839.229,6652
839.277,6651
839.326,6590
839.374,6620
839.423,6641
839.471,6615
839.52,6701
839.568,6611
839.616,6560
839.665,6648
839.713,6634
839.762,6624
839.81,6651
839.858,6666
839.907,6587
839.955,6575
840.004,6628
840.052,6597
840.1,6598
840.149,6575
840.197,6577
840.245,6551
840.294,6580
840.342,6574
840.39,6550
840.439,6470
840.487,6524
840.535,6488
840.584,6490
840.632,6546
840.68,6531
840.729,6484
840.777,6504
840.825,6467
840.873,6529
840.922,6472
840.97,6495
841.018,6475
841.067,6452
841.115,6505
841.163,6470
841.211,6411
841.26,6426
841.308,6459
841.356,6445
841.404,6477
841.452,6437
841.501,6412
841.549,6402
841.597,6391
841.645,6403
841.694,6374
841.742,6424
841.79,6389
841.838,6429
841.886,6394
841.934,6405
841.983,6387
842.031,6369
842.079,6344
842.127,6372
842.175,6384
842.223,6364
842.271,6319
842.32,6335
842.368,6339
842.416,6346
842.464,6289
842.512,6313
842.56,6341
842.608,6333
842.656,6390
842.704,6378
842.753,6326
842.801,6344
842.849,6340
842.897,6299
842.945,6295
842.993,6237
843.041,6172
843.089,6304
843.137,6275
843.185,6282
843.233,6295
843.281,6263
843.329,6276
843.377,6247
843.425,6300
843.473,6290
843.521,6320
843.569,6327
843.617,6304
843.665,6308
843.713,6306
843.761,6296
843.809,6300
843.857,6240
843.905,6244
843.953,6283
844.001,6241
844.049,6246
844.097,6268
844.145,6259
844.193,6266
844.241,6301
844.289,6269
844.336,6274
844.384,6259
844.432,6244
844.48,6311
844.528,6243
844.576,6274
844.624,6247
844.672,6256
844.72,6260
844.767,6243
844.815,6236
844.863,6268
844.911,6244
844.959,6214
845.007,6244
845.055,6189
845.102,6290
845.15,6263
845.198,6255
845.246,6192
845.294,6252
845.341,6205
845.389,6229
845.437,6192
845.485,6257
845.533,6239
845.58,6185
845.628,6194
845.676,6140
845.724,6243
845.771,6203
845.819,6256
845.867,6241
845.915,6198
845.962,6171
846.01,6232
846.058,6154
846.106,6207
846.153,6209
846.201,6155
846.249,6175