File: Physics/PHYS 331 - Advanced Laboratory/PHYS 331 Experiments/PHYS 331 XRD/PHYS 331 XRD (KCl) Data/PHYS 331 XRD Data (KCl).csv
20,103
20.06,109
20.12,101
20.18,98
20.24,94
20.3,85
20.36,90
20.42,95
20.48,90
20.54,98
20.6,93
20.66,90
20.72,88
20.78,80
20.84,68
20.9,90
20.96,84
21.02,94
21.08,89
21.14,75
21.2,83
21.26,100
21.32,87
21.38,68
21.44,76
21.5,87
21.56,94
21.62,88
21.68,81
21.74,87
21.8,69
21.86,83
21.92,77
21.98,77
22.04,91
22.1,74
22.16,76
22.22,78
22.28,83
22.34,86
22.4,86
22.46,59
22.52,70
22.58,82
22.64,93
22.7,73
22.76,78
22.82,80
22.88,85
22.94,81
23,95
23.06,67
23.12,88
23.18,79
23.24,97
23.3,95
23.36,88
23.42,92
23.48,76
23.54,84
23.6,78
23.66,79
23.72,68
23.78,69
23.84,71
23.9,91
23.96,65
24.02,63
24.08,80
24.14,66
24.2,78
24.26,89
24.32,88
24.38,70
24.44,75
24.5,69
24.56,83
24.62,85
24.68,79
24.74,62
24.8,67
24.86,65
24.92,86
24.98,72
25.04,60
25.1,76
25.16,82
25.22,73
25.28,85
25.34,80
25.4,82
25.46,77
25.52,78
25.58,59
25.64,73
25.7,81
25.76,86
25.82,91
25.88,93
25.94,98
26,90
26.06,90
26.12,105
26.18,102
26.24,89
26.3,83
26.36,78
26.42,68
26.48,67
26.54,63
26.6,61
26.66,87
26.72,70
26.78,74
26.84,71
26.9,86
26.96,71
27.02,78
27.08,74
27.14,62
27.2,80
27.26,70
27.32,78
27.38,82
27.44,72
27.5,66
27.56,81
27.62,75
27.68,91
27.74,72
27.8,97
27.86,100
27.92,89
27.98,126
28.04,118
28.1,110
28.16,165
28.22,147
28.28,136
28.34,165
28.4,172
28.46,203
28.52,326
28.58,1255
28.64,3271
28.7,3995
28.76,2816
28.82,2533
28.88,3633
28.94,4342
29,3901
29.06,3347
29.12,2565
29.18,1315
29.24,490
29.3,224
29.36,209
29.42,171
29.48,160
29.54,140
29.6,92
29.66,106
29.72,132
29.78,120
29.84,103
29.9,120
29.96,109
30.02,117
30.08,109
30.14,94
30.2,107
30.26,90
30.32,102
30.38,110
30.44,98
30.5,87
30.56,96
30.62,103
30.68,93
30.74,93
30.8,106
30.86,104
30.92,96
30.98,96
31.04,98
31.1,87
31.16,99
31.22,84
31.28,65
31.34,77
31.4,102
31.46,86
31.52,91
31.58,79
31.64,79
31.7,98
31.76,97
31.82,85
31.88,89
31.94,73
32,85
32.06,81
32.12,91
32.18,79
32.24,81
32.3,86
32.36,86
32.42,67
32.48,82
32.54,72
32.6,74
32.66,78
32.72,87
32.78,77
32.84,70
32.9,79
32.96,71
33.02,75
33.08,67
33.14,75
33.2,75
33.26,76
33.32,73
33.38,93
33.44,74
33.5,67
33.56,67
33.62,75
33.68,69
33.74,89
33.8,83
33.86,71
33.92,71
33.98,76
34.04,67
34.1,71
34.16,74
34.22,61
34.28,61
34.34,54
34.4,69
34.46,75
34.52,72
34.58,73
34.64,70
34.7,58
34.76,65
34.82,48
34.88,75
34.94,55
35,68
35.06,55
35.12,70
35.18,71
35.24,68
35.3,57
35.36,55
35.42,55
35.48,71
35.54,71
35.6,64
35.66,66
35.72,52
35.78,56
35.84,70
35.9,56
35.96,54
36.02,61
36.08,61
36.14,61
36.2,58
36.26,61
36.32,57
36.38,71
36.44,73
36.5,60
36.56,54
36.62,68
36.68,75
36.74,70
36.8,65
36.86,83
36.92,68
36.98,82
37.04,87
37.1,69
37.16,65
37.22,67
37.28,66
37.34,56
37.4,57
37.46,63
37.52,60
37.58,72
37.64,55
37.7,53
37.76,64
37.82,43
37.88,69
37.94,52
38,62
38.06,53
38.12,65
38.18,68
38.24,53
38.3,64
38.36,58
38.42,51
38.48,65
38.54,68
38.6,59
38.66,57
38.72,60
38.78,60
38.84,50
38.9,61
38.96,66
39.02,66
39.08,52
39.14,69
39.2,51
39.26,66
39.32,59
39.38,54
39.44,63
39.5,64
39.56,60
39.62,66
39.68,74
39.74,83
39.8,72
39.86,90
39.92,83
39.98,70
40.04,72
40.1,94
40.16,76
40.22,62
40.28,88
40.34,76
40.4,69
40.46,85
40.52,83
40.58,108
40.64,186
40.7,254
40.76,291
40.82,526
40.88,797
40.94,1186
41,1918
41.06,2319
41.12,2129
41.18,1635
41.24,996
41.3,560
41.36,292
41.42,178
41.48,121
41.54,72
41.6,70
41.66,67
41.72,72
41.78,64
41.84,77
41.9,59
41.96,76
42.02,70
42.08,66
42.14,77
42.2,57
42.26,67
42.32,70
42.38,70
42.44,71
42.5,55
42.56,68
42.62,72
42.68,53
42.74,69
42.8,62
42.86,64
42.92,71
42.98,69
43.04,60
43.1,63
43.16,59
43.22,58
43.28,53
43.34,52
43.4,61
43.46,55
43.52,74
43.58,49
43.64,61
43.7,68
43.76,50
43.82,54
43.88,60
43.94,61
44,52
44.06,60
44.12,59
44.18,60
44.24,40
44.3,43
44.36,52
44.42,56
44.48,60
44.54,70
44.6,70
44.66,58
44.72,69
44.78,53
44.84,47
44.9,55
44.96,62
45.02,55
45.08,51
45.14,42
45.2,63
45.26,59
45.32,49
45.38,48
45.44,53
45.5,54
45.56,68
45.62,71
45.68,59
45.74,36
45.8,49
45.86,43
45.92,67
45.98,54
46.04,45
46.1,53
46.16,50
46.22,59
46.28,66
46.34,52
46.4,60
46.46,75
46.52,66
46.58,40
46.64,53
46.7,72
46.76,49
46.82,59
46.88,56
46.94,40
47,63
47.06,53
47.12,62
47.18,53
47.24,43
47.3,48
47.36,48
47.42,48
47.48,50
47.54,61
47.6,58
47.66,53
47.72,44
47.78,39
47.84,61
47.9,46
47.96,46
48.02,46
48.08,55
48.14,51
48.2,47
48.26,34
48.32,41
48.38,51
48.44,61
48.5,65
48.56,54
48.62,67
48.68,52
48.74,46
48.8,64
48.86,57
48.92,53
48.98,58
49.04,62
49.1,48
49.16,56
49.22,34
49.28,48
49.34,48
49.4,53
49.46,50
49.52,52
49.58,37
49.64,60
49.7,53
49.76,36
49.82,48
49.88,43
49.94,51
50,43
50.06,52
50.12,56
50.18,53
50.24,47
50.3,54
50.36,78
50.42,114
50.48,163
50.54,239
50.6,463
50.66,624
50.72,530
50.78,498
50.84,325
50.9,166
50.96,133
51.02,86
51.08,69
51.14,68
51.2,47
51.26,58
51.32,40
51.38,53
51.44,55
51.5,53
51.56,47
51.62,48
51.68,52
51.74,60
51.8,38
51.86,46
51.92,38
51.98,46
52.04,51
52.1,47
52.16,51
52.22,57
52.28,51
52.34,49
52.4,39
52.46,39
52.52,49
52.58,45
52.64,55
52.7,58
52.76,54
52.82,56
52.88,51
52.94,53
53,47
53.06,46
53.12,48
53.18,62
53.24,47
53.3,60
53.36,45
53.42,42
53.48,59
53.54,43
53.6,45
53.66,54
53.72,51
53.78,40
53.84,44
53.9,47
53.96,44
54.02,48
54.08,40
54.14,54
54.2,48
54.26,63
54.32,39
54.38,46
54.44,41
54.5,34
54.56,43
54.62,48
54.68,53
54.74,44
54.8,44
54.86,53
54.92,63
54.98,60
55.04,42
55.1,49
55.16,42
55.22,51
55.28,53
55.34,61
55.4,44
55.46,58
55.52,44
55.58,46
55.64,34
55.7,52
55.76,53
55.82,63
55.88,57
55.94,52
56,50
56.06,43
56.12,60
56.18,64
56.24,67
56.3,46
56.36,58
56.42,51
56.48,43
56.54,48
56.6,51
56.66,59
56.72,61
56.78,41
56.84,56
56.9,42
56.96,54
57.02,63
57.08,59
57.14,53
57.2,63
57.26,55
57.32,45
57.38,62
57.44,58
57.5,54
57.56,58
57.62,53
57.68,59
57.74,73
57.8,63
57.86,38
57.92,53
57.98,66
58.04,50
58.1,62
58.16,55
58.22,50
58.28,72
58.34,67
58.4,62
58.46,80
58.52,61
58.58,65
58.64,81
58.7,75
58.76,102
58.82,163
58.88,175
58.94,253
59,443
59.06,659
59.12,828
59.18,843
59.24,882
59.3,836
59.36,665
59.42,372
59.48,300
59.54,210
59.6,128
59.66,85
59.72,87
59.78,81
59.84,107
59.9,83
59.96,76
60.02,87
60.08,72
60.14,54
60.2,71
60.26,70
60.32,81
60.38,78
60.44,75
60.5,75
60.56,73
60.62,54
60.68,74
60.74,58
60.8,73
60.86,59
60.92,56
60.98,59
61.04,70
61.1,69
61.16,56
61.22,62
61.28,66
61.34,72
61.4,75
61.46,48
61.52,56
61.58,56
61.64,62
61.7,58
61.76,73
61.82,54
61.88,58
61.94,53
62,61
62.06,62
62.12,79
62.18,71
62.24,65
62.3,44
62.36,60
62.42,63
62.48,60
62.54,52
62.6,62
62.66,55
62.72,54
62.78,63
62.84,62
62.9,75
62.96,65
63.02,64
63.08,65
63.14,75
63.2,65
63.26,65
63.32,70
63.38,61
63.44,51
63.5,67
63.56,60
63.62,67
63.68,60
63.74,78
63.8,60
63.86,65
63.92,53
63.98,60
64.04,70
64.1,67
64.16,68
64.22,59
64.28,60
64.34,75
64.4,70
64.46,85
64.52,70
64.58,71
64.64,79
64.7,75
64.76,71
64.82,80
64.88,94
64.94,67
65,71
65.06,71
65.12,97
65.18,85
65.24,59
65.3,63
65.36,78
65.42,65
65.48,75
65.54,68
65.6,70
65.66,55
65.72,76
65.78,87
65.84,77
65.9,89
65.96,91
66.02,89
66.08,101
66.14,66
66.2,87
66.26,120
66.32,82
66.38,100
66.44,99
66.5,122
66.56,204
66.62,320
66.68,498
66.74,707
66.8,989
66.86,1340
66.92,1499
66.98,1394
67.04,1073
67.1,891
67.16,613
67.22,423
67.28,241
67.34,155
67.4,86
67.46,109
67.52,80
67.58,94
67.64,101
67.7,82
67.76,84
67.82,76
67.88,75
67.94,59
68,80
68.06,84
68.12,92
68.18,72
68.24,84
68.3,87
68.36,57
68.42,61
68.48,84
68.54,70
68.6,75
68.66,67
68.72,74
68.78,84
68.84,74
68.9,84
68.96,69
69.02,60
69.08,62
69.14,74
69.2,88
69.26,72
69.32,55
69.38,70
69.44,68
69.5,56
69.56,71
69.62,67
69.68,71
69.74,65
69.8,90
69.86,73
69.92,78
69.98,71
70.04,56
70.1,78
70.16,79
70.22,74
70.28,78
70.34,49
70.4,70
70.46,71
70.52,78
70.58,64
70.64,58
70.7,75
70.76,75
70.82,50
70.88,57
70.94,65
71,66
71.06,73
71.12,60
71.18,59
71.24,59
71.3,65
71.36,70
71.42,56
71.48,70
71.54,69
71.6,73
71.66,60
71.72,63
71.78,66
71.84,75
71.9,54
71.96,71
72.02,72
72.08,75
72.14,72
72.2,54
72.26,67
72.32,82
72.38,60
72.44,58
72.5,56
72.56,74
72.62,88
72.68,61
72.74,66
72.8,74
72.86,63
72.92,71
72.98,60
73.04,78
73.1,57
73.16,86
73.22,67
73.28,63
73.34,69
73.4,66
73.46,82
73.52,77
73.58,74
73.64,78
73.7,82
73.76,74
73.82,105
73.88,115
73.94,182
74,263
74.06,389
74.12,519
74.18,750
74.24,728
74.3,633
74.36,500
74.42,483
74.48,341
74.54,207
74.6,140
74.66,85
74.72,83
74.78,78
74.84,78
74.9,69
74.96,67
75.02,82
75.08,72
75.14,67
75.2,67
75.26,62
75.32,51
75.38,55
75.44,52
75.5,67
75.56,59
75.62,51
75.68,67
75.74,66
75.8,52
75.86,67
75.92,50
75.98,69
76.04,75
76.1,72
76.16,51
76.22,46
76.28,59
76.34,69
76.4,58
76.46,55
76.52,50
76.58,57
76.64,56
76.7,65
76.76,62
76.82,70
76.88,64
76.94,48
77,62
77.06,63
77.12,54
77.18,56
77.24,63
77.3,68
77.36,54
77.42,58
77.48,56
77.54,57
77.6,53
77.66,62
77.72,64
77.78,54
77.84,56
77.9,69
77.96,55
78.02,51
78.08,63
78.14,51
78.2,50
78.26,53
78.32,52
78.38,62
78.44,49
78.5,46
78.56,58
78.62,50
78.68,67
78.74,62
78.8,56
78.86,58
78.92,62
78.98,53
79.04,59
79.1,53
79.16,72
79.22,65
79.28,56
79.34,71
79.4,51
79.46,60
79.52,69
79.58,63
79.64,55
79.7,59
79.76,61
79.82,54
79.88,62
79.94,58
80,49